Folder: An-experimental-and-numerical-study-of-the-mechanical-response-of-3D-printed-semicrystalline-polymer/Raw_Data./DSC/Crystallisation Speed/Crystallisation time at Temperature T

File: crystal 80 degs.csv
Time,Unsubtracted Heat Flow,Baseline Heat Flow,Program Temperature,Sample Temperature,Approx. Gas Flow,Heat Flow Calibration,Uncorrected Heat Flow,
0,9.261655,0.190191,30.02,30.058,0,1.056615,9.261655,
0.065417,-3.381063,-12.6942,36.287,34.629,0,1.056615,-3.381063,
0.130833,9.805284,-6.648118,42.554,40.916,0,1.056615,9.805284,
0.19625,19.7735,-5.318579,48.82,47.2,0,1.056615,19.7735,
0.261667,25.1652,-4.888959,55.091,53.483,0,1.056615,25.1652,
0.327083,28.424,-4.559823,61.358,59.766,0,1.056615,28.424,
0.3925,30.1656,-4.231955,67.625,66.045,0,1.056615,30.1656,
0.457917,31.4006,-3.885808,73.895,72.329,0,1.056615,31.4006,
0.523333,33.4823,-3.486513,80.162,78.616,0,1.056615,33.4823,
0.58875,37.8083,-3.010297,86.429,84.891,0,1.056615,37.8083,
0.654167,40.7967,-2.600964,92.7,91.162,0,1.056615,40.7967,
0.719583,41.2457,-2.167435,98.966,97.441,0,1.056615,41.2457,
0.785,41.3634,-1.720487,105.233,103.712,0,1.056615,41.3634,
0.850417,41.4418,-1.23307,111.5,109.987,0,1.056615,41.4418,
0.915833,41.6276,-0.77302,117.77,116.262,0,1.056615,41.6276,
0.98125,41.9142,-0.219565,124.037,122.537,0,1.056615,41.9142,
1.046667,42.2061,0.251369,130.304,128.816,0,1.056615,42.2061,
1.112083,42.7366,0.782424,136.575,135.095,0,1.056615,42.7366,
1.1775,43.4629,1.291078,142.841,141.383,0,1.056615,43.4629,
1.242917,44.4705,1.870737,149.108,147.658,0,1.056615,44.4705,
1.308333,45.7957,2.446593,155.379,153.929,0,1.056615,45.7957,
1.37375,47.6997,3.054146,161.645,160.204,0,1.056615,47.6997,
1.439167,49.1568,3.716433,167.912,166.483,0,1.056615,49.1568,
1.504583,49.4279,4.536683,174.179,172.75,0,1.056615,49.4279,
1.57,49.7844,5.102078,180.45,179.025,0,1.056615,49.7844,
1.635417,50.2325,5.762568,186.716,185.295,0,1.056615,50.2325,
1.700833,50.2221,6.451798,192.983,191.575,0,1.056615,50.2221,
1.76625,49.6865,7.175474,199.254,197.854,0,1.056615,49.6865,
1.831667,49.9276,7.922818,205.52,204.133,0,1.056615,49.9276,
1.897083,52.3513,8.733242,211.787,210.404,0,1.056615,52.3513,
1.9625,53.6227,9.535002,218.058,216.67,0,1.056615,53.6227,
2.027917,54.83157,10.3512,224.325,222.945,0,1.056615,54.83157,
2.268333,41.1498,27.491,225,225.058,0,1.056615,41.1498,
2.53,29.8655,27.38377,225,225.062,0,1.056615,29.8655,
2.791667,28.567,27.3762,225,225.066,0,1.056615,28.567,
3.053333,28.3827,27.3706,225,225.066,0,1.056615,28.3827,
3.315,28.3336,27.3667,225,225.066,0,1.056615,28.3336,
3.576667,28.3069,27.3609,225,225.07,0,1.056615,28.3069,
3.838333,28.2924,27.3562,225,225.07,0,1.056615,28.2924,
4.1,28.277,27.3544,225,225.066,0,1.056615,28.277,
4.361667,28.2666,27.351,225,225.07,0,1.056615,28.2666,
4.623333,28.2566,27.3475,225,225.07,0,1.056615,28.2566,
4.885,28.2467,27.3444,225,225.075,0,1.056615,28.2467,
5.146667,28.2322,27.3409,225,225.07,0,1.056615,28.2322,
5.408333,28.2244,27.342,225,225.07,0,1.056615,28.2244,
5.67,28.2153,27.338,225,225.075,0,1.056615,28.2153,
5.931667,28.2056,27.337,225,225.075,0,1.056615,28.2056,
6.193333,28.1973,27.3366,225,225.07,0,1.056615,28.1973,
6.455,28.1905,27.3333,225,225.075,0,1.056615,28.1905,
6.716667,28.1812,27.332,225,225.075,0,1.056615,28.1812,
6.978333,28.1749,27.3282,225,225.075,0,1.056615,28.1749,
7.09125,37.5661,22.2836,216.354,219.854,0,1.056615,37.5661,
7.156667,33.1987,24.6003,204.995,208.458,0,1.056615,33.1987,
7.222083,7.936554,18.7171,193.633,197.183,0,1.056615,7.936554,
7.2875,-6.59666,16.2551,182.275,185.912,0,1.056615,-6.59666,
7.352917,-14.3455,14.358,170.916,174.67,0,1.056615,-14.3455,
7.418333,-18.36503,12.5165,159.558,163.437,0,1.056615,-18.36503,
7.48375,-20.32727,10.57767,148.2,152.229,0,1.056615,-20.32727,
7.549167,-20.8602,8.341555,136.841,141.075,0,1.056615,-20.8602,
7.614583,-19.8713,5.485207,125.483,129.962,0,1.056615,-19.8713,
7.68,-18.0138,1.319924,114.125,118.95,0,1.056615,-18.0138,
7.745417,-22.4003,3.010086,102.766,108.416,0,1.056615,-22.4003,
7.810833,-25.0536,3.835091,91.408,98.566,0,1.056615,-25.0536,
7.87625,-26.0547,20.5799,80,89.12,0,1.056615,-26.0547,
8.137917,-13.2975,11.8359,80,80.12,0,1.056615,-13.2975,
8.399583,9.304554,12.15,80,80.1,0,1.056615,9.304554,
8.66125,12.0094,12.1492,80,80.1,0,1.056615,12.0094,
8.922917,12.358,12.1479,80,80.091,0,1.056615,12.358,
9.184583,12.4092,12.1461,80,80.095,0,1.056615,12.4092,
9.44625,12.4191,12.1467,80,80.095,0,1.056615,12.4191,
9.707917,12.4234,12.146,80,80.091,0,1.056615,12.4234,
9.969583,12.4263,12.1457,80,80.095,0,1.056615,12.4263,
10.23125,12.4288,12.1464,80,80.087,0,1.056615,12.4288,
10.4929,12.4301,12.1463,80,80.091,0,1.056615,12.4301,
10.7546,12.4304,12.1456,80,80.087,0,1.056615,12.4304,
11.01625,12.43055,12.1465,80,80.087,0,1.056615,12.43055,
11.2779,12.4315,12.1452,80,80.087,0,1.056615,12.4315,
11.5396,12.433,12.1457,80,80.087,0,1.056615,12.433,
11.80125,12.4349,12.1451,80,80.091,0,1.056615,12.4349,
12.0629,12.434,12.1453,80,80.091,0,1.056615,12.434,
12.3246,12.4349,12.14537,80,80.091,0,1.056615,12.4349,
12.58625,12.4338,12.1452,80,80.087,0,1.056615,12.4338,
12.8479,12.4349,12.1445,80,80.087,0,1.056615,12.4349,
13.1096,12.435,12.14463,80,80.083,0,1.056615,12.435,
13.37125,12.43615,12.1459,80,80.087,0,1.056615,12.43615,
13.6329,12.4353,12.14537,80,80.087,0,1.056615,12.4353,
13.8946,12.4364,12.1445,80,80.091,0,1.056615,12.4364,
14.15625,12.4347,12.1451,80,80.087,0,1.056615,12.4347,
14.4179,12.4353,12.1441,80,80.083,0,1.056615,12.4353,
14.6796,12.4353,12.1435,80,80.083,0,1.056615,12.4353,
14.94125,12.435,12.1441,80,80.087,0,1.056615,12.435,
15.2029,12.4363,12.143,80,80.087,0,1.056615,12.4363,
15.4646,12.4351,12.1427,80,80.087,0,1.056615,12.4351,
15.72625,12.4349,12.1438,80,80.083,0,1.056615,12.4349,
15.9879,12.4359,12.1434,80,80.087,0,1.056615,12.4359,
16.2496,12.4353,12.14294,80,80.087,0,1.056615,12.4353,
16.51125,12.4352,12.1432,80,80.087,0,1.056615,12.4352,
16.7729,12.4373,12.143,80,80.087,0,1.056615,12.4373,
17.0346,12.4375,12.1419,80,80.087,0,1.056615,12.4375,
17.29625,12.4371,12.1426,80,80.087,0,1.056615,12.4371,
17.5579,12.4349,12.1417,80,80.087,0,1.056615,12.4349,
17.8196,12.4358,12.1427,80,80.087,0,1.056615,12.4358,
18.08125,12.4356,12.1428,80,80.087,0,1.056615,12.4356,
18.3429,12.4366,12.1437,80,80.083,0,1.056615,12.4366,
18.6046,12.4339,12.1428,80,80.083,0,1.056615,12.4339,
18.86625,12.4355,12.1428,80,80.083,0,1.056615,12.4355,
19.1279,12.436,12.1425,80,80.087,0,1.056615,12.436,
19.3896,12.4358,12.1428,80,80.087,0,1.056615,12.4358,
19.65125,12.4375,12.1426,80,80.087,0,1.056615,12.4375,
19.9129,12.4371,12.14294,80,80.083,0,1.056615,12.4371,
20.1746,12.4368,12.1421,80,80.083,0,1.056615,12.4368,
20.43625,12.4373,12.1424,80,80.083,0,1.056615,12.4373,
20.6979,12.4368,12.1425,80,80.083,0,1.056615,12.4368,
20.9596,12.4374,12.143,80,80.083,0,1.056615,12.4374,
21.22125,12.4382,12.1428,80,80.083,0,1.056615,12.4382,
21.4829,12.4372,12.142,80,80.079,0,1.056615,12.4372,
21.7446,12.4373,12.1416,80,80.083,0,1.056615,12.4373,
22.00625,12.4382,12.1428,80,80.083,0,1.056615,12.4382,
22.2679,12.4379,12.1419,80,80.079,0,1.056615,12.4379,
22.5296,12.4381,12.1422,80,80.083,0,1.056615,12.4381,
22.79125,12.4396,12.1421,80,80.083,0,1.056615,12.4396,
23.0529,12.4385,12.1417,80,80.079,0,1.056615,12.4385,
23.3146,12.4391,12.1421,80,80.083,0,1.056615,12.4391,
23.57625,12.4389,12.14146,80,80.083,0,1.056615,12.4389,
23.8379,12.4382,12.14146,80,80.083,0,1.056615,12.4382,
24.0996,12.4385,12.14146,80,80.083,0,1.056615,12.4385,
24.36125,12.4375,12.1428,80,80.079,0,1.056615,12.4375,
24.6229,12.4379,12.1432,80,80.083,0,1.056615,12.4379,
24.8846,12.4375,12.1419,80,80.083,0,1.056615,12.4375,
25.14625,12.4375,12.1424,80,80.083,0,1.056615,12.4375,
25.4079,12.43763,12.1412,80,80.079,0,1.056615,12.43763,
25.6696,12.4384,12.14146,80,80.083,0,1.056615,12.4384,
25.93125,12.4364,12.1412,80,80.083,0,1.056615,12.4364,
26.1929,12.4373,12.1421,80,80.083,0,1.056615,12.4373,
26.4546,12.4357,12.1419,80,80.083,0,1.056615,12.4357,
26.71625,12.4356,12.1412,80,80.083,0,1.056615,12.4356,
26.9779,12.4358,12.1419,80,80.079,0,1.056615,12.4358,
27.2396,12.4366,12.1419,80,80.083,0,1.056615,12.4366,
27.50125,12.4357,12.1416,80,80.079,0,1.056615,12.4357,
27.7629,12.4357,12.1418,80,80.083,0,1.056615,12.4357,
28.0246,12.4365,12.1419,80,80.083,0,1.056615,12.4365,
28.28625,12.4353,12.1425,80,80.083,0,1.056615,12.4353,
28.5479,12.4358,12.1424,80,80.079,0,1.056615,12.4358,
28.8096,12.4373,12.1421,80,80.079,0,1.056615,12.4373,
29.07125,12.4363,12.1421,80,80.079,0,1.056615,12.4363,
29.3329,12.4357,12.1426,80,80.083,0,1.056615,12.4357,
29.5946,12.4356,12.14146,80,80.075,0,1.056615,12.4356,
29.85625,12.4367,12.1423,80,80.079,0,1.056615,12.4367,
30.1179,12.4377,12.1414,80,80.075,0,1.056615,12.4377,
30.3796,12.4363,12.141,80,80.079,0,1.056615,12.4363,
30.64125,12.4365,12.1409,80,80.079,0,1.056615,12.4365,
30.9029,12.43615,12.1403,80,80.079,0,1.056615,12.43615,
31.1646,12.43615,12.1414,80,80.075,0,1.056615,12.43615,
31.42625,12.4368,12.1395,80,80.079,0,1.056615,12.4368,
31.6879,12.4363,12.1414,80,80.075,0,1.056615,12.4363,
31.9496,12.4357,12.1409,80,80.079,0,1.056615,12.4357,
32.21125,12.4357,12.1402,80,80.079,0,1.056615,12.4357,
32.4729,12.4352,12.1419,80,80.083,0,1.056615,12.4352,
32.7346,12.4364,12.1406,80,80.079,0,1.056615,12.4364,
32.99625,12.437,12.1406,80,80.075,0,1.056615,12.437,
33.2579,12.436,12.1408,80,80.075,0,1.056615,12.436,
33.5196,12.4358,12.1411,80,80.079,0,1.056615,12.4358,
33.78125,12.43615,12.1396,80,80.079,0,1.056615,12.43615,
34.0429,12.4351,12.1402,80,80.079,0,1.056615,12.4351,
34.3046,12.436,12.14,80,80.075,0,1.056615,12.436,
34.56625,12.4364,12.1406,80,80.075,0,1.056615,12.4364,
34.8279,12.4353,12.141,80,80.075,0,1.056615,12.4353,
35.0896,12.4358,12.1401,80,80.079,0,1.056615,12.4358,
35.35125,12.4363,12.1404,80,80.075,0,1.056615,12.4363,
35.6129,12.43446,12.1403,80,80.083,0,1.056615,12.43446,
35.8746,12.43689,12.1404,80,80.079,0,1.056615,12.43689,
36.13625,12.43689,12.14,80,80.079,0,1.056615,12.43689,
36.3979,12.436,12.1399,80,80.083,0,1.056615,12.436,
36.6596,12.4357,12.1406,80,80.075,0,1.056615,12.4357,
36.92125,12.4346,12.1404,80,80.083,0,1.056615,12.4346,
37.1829,12.4349,12.1401,80,80.083,0,1.056615,12.4349,
37.4446,12.4341,12.1407,80,80.075,0,1.056615,12.4341,
37.70625,12.4346,12.1399,80,80.07,0,1.056615,12.4346,
37.93125,12.4346,12.141,80,80.079,0,1.056615,12.4346,