Folder: An-experimental-and-numerical-study-of-the-mechanical-response-of-3D-printed-semicrystalline-polymer/DSC/Crystallisation samples/Nozzle 1 mm/0 Degrees/LH01_0D_N1

File: Test 1.csv
Temperature,Heat Flow
30.05,8.5975
30.48,9.2263
31.13,9.7059
31.77,10.5098
32.42,10.8279
33.07,10.9428
33.72,10.9891
34.37,11.01
35.01,11.0263
35.67,11.0353
36.31,11.043
36.96,11.0515
37.61,11.0586
38.26,11.0638
38.91,11.0721
39.56,11.083
40.21,11.0874
40.85,11.0921
41.5,11.0946
42.15,11.0956
42.8,11.0971
43.45,11.0992
44.1,11.1058
44.75,11.1121
45.4,11.1151
46.05,11.1188
46.7,11.1237
47.35,11.129
48,11.1387
48.65,11.1468
49.3,11.1589
49.94,11.1714
50.59,11.183
51.24,11.2024
51.89,11.2244
52.54,11.2577
53.19,11.2924
53.84,11.3253
54.49,11.3395
55.13,11.3499
55.79,11.3728
56.44,11.3937
57.09,11.3343
57.73,11.4075
58.39,11.5294
59.03,11.6328
59.68,11.7372
60.33,11.8761
60.98,11.8826
61.63,11.8286
62.28,11.7973
62.93,11.7522
63.58,11.7483
64.23,11.6818
64.88,11.6419
65.53,11.5621
66.18,11.5456
66.83,11.6506
67.48,11.6882
68.13,11.7659
68.78,11.8992
69.43,11.8208
70.08,11.7759
70.73,11.7728
71.38,11.7321
72.03,11.7447
72.68,11.864
73.33,11.8568
73.98,11.9038
74.63,11.8555
75.28,11.9067
75.93,11.9095
76.58,11.914
77.23,11.9064
77.88,11.9041
78.53,11.9018
79.18,11.8956
79.83,11.8859
80.48,11.8835
81.13,11.8765
81.78,11.8708
82.42,11.8513
83.08,11.8255
83.72,11.8262
84.37,11.8108
85.02,11.7777
85.67,11.7627
86.31,11.7442
86.96,11.7128
87.6,11.6846
88.26,11.6524
88.9,11.6095
89.55,11.578
90.2,11.5399
90.85,11.5372
91.5,11.4651
92.15,11.3678
92.8,11.3225
93.45,11.2912
94.1,11.2679
94.75,11.2132
95.4,11.1404
96.05,11.086
96.7,11.0438
97.34,10.9976
98,10.95
98.64,10.9106
99.29,10.8648
99.94,10.8346
100.59,10.7956
101.24,10.7675
101.89,10.7499
102.54,10.7342
103.18,10.725
103.83,10.7238
104.48,10.7274
105.13,10.7386
105.78,10.7611
106.43,10.7857
107.08,10.8207
107.72,10.8603
108.37,10.8997
109.02,10.949
109.67,10.9964
110.32,11.0484
110.97,11.1037
111.62,11.1552
112.27,11.2071
112.92,11.2576
113.57,11.3048
114.22,11.3569
114.86,11.3981
115.51,11.4391
116.16,11.482
116.81,11.517
117.46,11.5553
118.11,11.5933
118.76,11.6188
119.41,11.6478
120.06,11.6741
120.71,11.6951
121.35,11.7319
122.01,11.7962
122.65,11.7845
123.3,11.8021
123.95,11.8285
124.61,11.8381
125.25,11.8496
125.9,11.8668
126.55,11.8815
127.2,11.8989
127.85,11.9143
128.5,11.9339
129.15,11.9543
129.8,11.9697
130.45,11.9889
131.1,12.0062
131.75,12.0217
132.4,12.044
133.05,12.0689
133.7,12.0848
134.35,12.1024
134.99,12.1236
135.65,12.1453
136.3,12.1686
136.94,12.1947
137.6,12.2244
138.25,12.2549
138.9,12.2821
139.55,12.3185
140.2,12.3571
140.85,12.4018
141.5,12.4479
142.15,12.5007
142.8,12.5528
143.44,12.6175
144.09,12.6864
144.74,12.775
145.39,12.8773
146.03,12.9903
146.69,13.1395
147.33,13.3128
147.98,13.5191
148.63,13.7436
149.28,13.9611
149.93,14.1506
150.58,14.3123
151.22,14.4492
151.87,14.5463
152.52,14.5904
153.17,14.5804
153.81,14.5754
154.46,14.5157
155.11,14.3117
155.76,13.9354
156.41,13.4615
157.06,12.981
157.71,12.5688
158.36,12.3093
159.01,12.1921
159.66,12.1321
160.31,12.1037
160.96,12.0835
161.6,12.0742
162.26,12.0826
162.9,12.0899
163.55,12.0856
164.21,12.093
164.86,12.0972
165.51,12.0941
166.16,12.0922
166.8,12.0948
167.45,12.095
168.1,12.098
168.75,12.1035
169.4,12.1108
170.05,12.1149
170.69,12.1194
171.35,12.1216
171.99,12.132
172.64,12.1317
173.29,12.1246
173.94,12.1231
174.59,12.1284
175.24,12.1372
175.89,12.1428
176.53,12.1437
177.18,12.1485
177.83,12.1519
178.48,12.1548
179.13,12.1558
179.78,12.1584
180.43,12.1569
181.07,12.1639
181.72,12.1656
182.37,12.1718
183.02,12.1756
183.67,12.1765
184.32,12.1893
184.97,12.1856
185.62,12.1887
186.26,12.1944
186.92,12.197
187.57,12.1993
188.22,12.2339
188.87,12.2155
189.51,12.2106
190.16,12.2129
190.82,12.2142
191.46,12.2149
192.11,12.2238
192.76,12.2283
193.41,12.2334
194.06,12.2299
194.71,12.2312
195.36,12.2365
196.01,12.2366
196.66,12.2404
197.31,12.244
197.96,12.2508
198.61,12.2508
199.26,12.2571
199.9,12.2563
200.56,12.2569
201.21,12.2589
201.86,12.2651
202.5,12.2677
203.15,12.2752
203.81,12.272
204.46,12.2742
205.1,12.281
205.75,12.2806
206.4,12.2786
207.05,12.2809
207.7,12.2777
208.35,12.2858
209,12.2886
209.64,12.2922
210.29,12.2952
210.94,12.3009
211.59,12.3037
212.23,12.3085
212.88,12.3129
213.53,12.318
214.18,12.3267
214.83,12.3346
215.47,12.3311
216.13,12.3346
216.78,12.3319
217.43,12.3331
218.07,12.3361
218.72,12.3394
219.37,12.3436
219.85,12.3643