Folder: An-experimental-and-numerical-study-of-the-mechanical-response-of-3D-printed-semicrystalline-polymer/DSC/Crystallisation samples/Nozzle 1 mm/0 Degrees/LH02_0D_N1

File: Test 1.csv
Temperature,Heat Flow
30.05,8.0741
30.48,8.4797
31.12,8.4837
31.78,9.348
32.42,9.7857
33.07,9.9714
33.72,10.0522
34.37,10.0903
35.02,10.1119
35.66,10.1289
36.31,10.1405
36.96,10.1504
37.6,10.1625
38.26,10.1684
38.91,10.1746
39.56,10.1833
40.2,10.1929
40.86,10.1992
41.5,10.202
42.15,10.2073
42.8,10.21
43.45,10.2188
44.1,10.2276
44.74,10.2325
45.4,10.2362
46.04,10.2378
46.69,10.2409
47.34,10.2448
47.99,10.2498
48.65,10.2556
49.3,10.2624
49.94,10.2727
50.59,10.2828
51.24,10.2931
51.89,10.302
52.54,10.3117
53.18,10.3231
53.83,10.3409
54.48,10.3604
55.13,10.392
55.78,10.4164
56.43,10.4287
57.08,10.4704
57.73,10.5073
58.38,10.5541
59.03,10.6182
59.68,10.6851
60.33,10.7395
60.98,10.7537
61.63,10.7451
62.27,10.7503
62.93,10.75
63.58,10.7447
64.22,10.7693
64.88,10.8278
65.53,10.8001
66.17,10.7328
66.83,10.676
67.48,10.5945
68.13,10.5628
68.78,10.5844
69.43,10.6141
70.08,10.6626
70.73,10.7164
71.38,10.7875
72.03,10.8122
72.68,10.8387
73.33,10.8438
73.98,10.8565
74.63,10.8698
75.28,10.8828
75.93,10.8883
76.58,10.8923
77.23,10.8924
77.88,10.9009
78.53,10.905
79.18,10.9112
79.83,10.909
80.48,10.9094
81.13,10.9055
81.78,10.9089
82.42,10.9053
83.07,10.8973
83.72,10.8918
84.37,10.8868
85.02,10.8793
85.66,10.8753
86.31,10.8583
86.96,10.8412
87.6,10.8284
88.25,10.8171
88.9,10.7825
89.55,10.7517
90.2,10.7263
90.84,10.7019
91.5,10.6748
92.15,10.6458
92.8,10.6252
93.45,10.5919
94.1,10.5692
94.75,10.5383
95.4,10.5118
96.05,10.4806
96.7,10.4482
97.34,10.4165
98,10.3904
98.64,10.3727
99.29,10.338
99.93,10.3098
100.58,10.2959
101.23,10.2757
101.88,10.2508
102.53,10.2307
103.18,10.2105
103.83,10.193
104.48,10.174
105.13,10.1532
105.78,10.1401
106.43,10.1191
107.08,10.1065
107.73,10.0952
108.37,10.0829
109.02,10.0803
109.67,10.0819
110.32,10.0621
110.97,10.0937
111.62,10.1187
112.27,10.1454
112.91,10.1711
113.57,10.2038
114.22,10.2422
114.86,10.2837
115.51,10.3278
116.16,10.3702
116.81,10.4099
117.46,10.4585
118.11,10.5052
118.76,10.5465
119.41,10.5886
120.05,10.6249
120.71,10.6603
121.36,10.6953
122,10.727
122.65,10.7582
123.3,10.7854
123.95,10.8116
124.61,10.8317
125.25,10.853
125.9,10.8688
126.55,10.8868
127.2,10.8955
127.85,10.9136
128.5,10.9347
129.15,10.9566
129.8,10.9581
130.45,10.978
131.1,11.0083
131.75,11.0232
132.4,11.0335
133.05,11.0537
133.7,11.0745
134.35,11.0801
135,11.0934
135.65,11.1216
136.3,11.1439
136.94,11.1675
137.6,11.1892
138.25,11.2135
138.9,11.2408
139.55,11.2693
140.2,11.2939
140.85,11.3226
141.5,11.3579
142.15,11.394
142.8,11.4337
143.44,11.473
144.1,11.5186
144.75,11.5667
145.4,11.6304
146.04,11.7036
146.69,11.7846
147.34,11.8834
147.99,11.9997
148.63,12.1436
149.28,12.3089
149.93,12.4994
150.58,12.7095
151.23,12.9291
151.88,13.12
152.52,13.2566
153.17,13.3352
153.82,13.3557
154.47,13.3455
155.11,13.2939
155.76,13.1892
156.41,13.002
157.06,12.6827
157.71,12.2519
158.36,11.8161
159.01,11.5146
159.66,11.3484
160.32,11.227
160.96,11.1785
161.62,11.1553
162.26,11.146
162.91,11.1495
163.56,11.1402
164.21,11.1455
164.86,11.152
165.51,11.1491
166.16,11.1511
166.81,11.1432
167.46,11.137
168.11,11.1405
168.76,11.146
169.4,11.1444
170.06,11.1511
170.7,11.1516
171.35,11.1573
172,11.1534
172.65,11.1527
173.29,11.1895
173.94,11.2021
174.59,11.2007
175.25,11.2063
175.89,11.2106
176.54,11.2105
177.19,11.2129
177.84,11.2003
178.48,11.2095
179.13,11.2158
179.78,11.2214
180.43,11.2085
181.08,11.2215
181.72,11.2209
182.38,11.2238
183.03,11.2263
183.68,11.2238
184.33,11.2267
184.97,11.2251
185.63,11.2273
186.28,11.2282
186.92,11.2224
187.57,11.2254
188.22,11.1941
188.88,11.2092
189.52,11.2196
190.17,11.2233
190.82,11.2217
191.47,11.2229
192.12,11.1758
192.77,11.2106
193.42,11.2337
194.07,11.2343
194.72,11.1853
195.37,11.2031
196.02,11.2166
196.67,11.2121
197.32,11.1992
197.97,11.2153
198.62,11.2242
199.27,11.229
199.92,11.2311
200.57,11.2358
201.22,11.2289
201.87,11.2014
202.52,11.2143
203.17,11.2207
203.81,11.2169
204.47,11.2146
205.12,11.2061
205.76,11.2068
206.41,11.2067
207.06,11.2066
207.71,11.208
208.35,11.2088
209,11.1901
209.65,11.1814
210.3,11.1796
210.94,11.1903
211.6,11.1795
212.24,11.1998
212.89,11.1994
213.54,11.1981
214.19,11.2024
214.84,11.2104
215.49,11.2127
216.13,11.2199
216.78,11.2092
217.43,11.2132
218.08,11.2122
218.73,11.1995
219.38,11.189
219.86,11.2031