Folder: An-experimental-and-numerical-study-of-the-mechanical-response-of-3D-printed-semicrystalline-polymer/Raw_Data./Tensile Nozzle 0.4 mm/45 Degrees/LH0.1_45D_N0.4

File: Test 4.csv
Crosshead ,Load ,Time ,Strain 1 ,Strain 2
0.007373047,-0.00306048,0.113,2.39E-05,-6.23E-05
0.0203613,0.006660781,0.313,-9.48E-06,-6.42E-05
0.0343262,0.014218,0.513,7.33E-05,-5.71E-05
0.0510742,0.0257568,0.713,0.000233497,-0.000129289
0.0682617,0.03865242,0.913,0.000421142,-0.000196429
0.0858398,0.0518516,1.113,0.000495131,-0.000358475
0.103467,0.0643275,1.313,0.000604304,-0.000319008
0.12085,0.0744517,1.513,0.000790114,-0.00032191
0.138623,0.0899276,1.713,0.0010043,-0.000376574
0.155811,0.0999259,1.913,0.00131026,-0.000407045
0.173389,0.113903,2.113,0.0014983,-0.000460181
0.190576,0.123422,2.313,0.00181254,-0.000626087
0.207227,0.13847,2.513,0.00189986,-0.000650208
0.224316,0.14588,2.713,0.00198777,-0.000669968
0.240674,0.157635,2.913,0.00212827,-0.000830745
0.25835,0.173172,3.113,0.00225926,-0.000876755
0.274561,0.183148,3.313,0.00241981,-0.000870807
0.291992,0.193847,3.513,0.00261704,-0.000860093
0.308398,0.204378,3.713,0.00285776,-0.000915528
0.325586,0.213642,3.913,0.00301599,-0.00101598
0.342236,0.228359,4.113,0.00313455,-0.0010769
0.358984,0.236986,4.313,0.0033983,-0.00115814
0.375635,0.24806,4.513,0.00352368,-0.00119254
0.392285,0.257293,4.713,0.0037028,-0.00132286
0.408691,0.265935,4.913,0.00387491,-0.00135352
0.425732,0.278912,5.113,0.00407591,-0.00139051
0.441895,0.286781,5.313,0.00421418,-0.00153443
0.459229,0.297059,5.513,0.00443982,-0.00156881
0.475244,0.306894,5.713,0.00465769,-0.00141781
0.492871,0.315081,5.913,0.00476034,-0.00151112
0.509082,0.324883,6.113,0.00493863,-0.00161658
0.526123,0.333215,6.313,0.00503814,-0.00169195
0.542529,0.342896,6.513,0.00526982,-0.00184456
0.559229,0.350428,6.713,0.00538774,-0.00189845
0.576074,0.359319,6.913,0.00559635,-0.00191683
0.592871,0.368949,7.113,0.00581982,-0.00201214
0.609277,0.37577,7.313,0.00606583,-0.00207684
0.626172,0.383731,7.513,0.00631082,-0.00216956
0.642383,0.39151,7.713,0.00642568,-0.00207248
0.659766,0.405701,7.913,0.00655399,-0.00215009
0.675684,0.410338,8.113,0.00665526,-0.00226418
0.69292,0.419408,8.313,0.00688757,-0.00230049
0.708789,0.428414,8.513,0.0070181,-0.00238226
0.725732,0.433872,8.713,0.00723025,-0.0024783
0.742236,0.439837,8.913,0.00740166,-0.00250669
0.758984,0.4511,9.113,0.00759457,-0.00254049
0.775684,0.460525,9.313,0.00771672,-0.0026402
0.792383,0.469267,9.513,0.00778188,-0.00274788
0.808936,0.472935,9.713,0.00801056,-0.00267465
0.826172,0.484209,9.913,0.00832347,-0.00263141
0.842383,0.490563,10.113,0.00859104,-0.00274705
0.859717,0.500693,10.313,0.00883154,-0.002773
0.875537,0.504893,10.513,0.00906812,-0.0028442
0.89292,0.511621,10.713,0.00912486,-0.00286627
0.909033,0.521449,10.913,0.00927754,-0.00305228
0.925977,0.524317,11.113,0.0094257,-0.0030887
0.942334,0.53175,11.313,0.00952215,-0.00320112
0.959033,0.541029,11.513,0.00977841,-0.0032003
0.975928,0.546472,11.713,0.00988021,-0.00323699
0.992773,0.55453,11.913,0.0101458,-0.00325198
1.00928,0.559793,12.113,0.0102966,-0.00328967
1.02617,0.568633,12.313,0.0104321,-0.00335597
1.04229,0.573748,12.513,0.0106553,-0.00335019
1.05967,0.580925,12.713,0.0108616,-0.00346153
1.07568,0.58469,12.913,0.0110442,-0.00353814
1.09297,0.591027,13.113,0.0112955,-0.00354212
1.10903,0.600232,13.313,0.0114033,-0.00368992
1.12598,0.607075,13.513,0.0115519,-0.00368327
1.14248,0.611954,13.713,0.0117799,-0.00376166
1.15937,0.619158,13.913,0.0119746,-0.00374988
1.17612,0.62581,14.113,0.0120462,-0.00379875
1.19282,0.627472,14.313,0.0121801,-0.00385718
1.20933,0.636169,14.513,0.0123121,-0.0038966
1.22627,0.642342,14.713,0.0124974,-0.00400429
1.24248,0.647949,14.913,0.0128405,-0.00399332
1.25972,0.657027,15.113,0.0129357,-0.00410248
1.27563,0.658433,15.313,0.0132445,-0.00416175
1.29307,0.667874,15.513,0.0133913,-0.00422123
1.30908,0.672037,15.713,0.0135652,-0.00428322
1.32607,0.679547,15.913,0.0137286,-0.0043402
1.34253,0.681914,16.113,0.0139212,-0.00431972
1.35923,0.688329,16.313,0.0141603,-0.0043496
1.37593,0.696457,16.513,0.0142077,-0.00442407
1.39253,0.697145,16.713,0.0144312,-0.00448018
1.40884,0.701236,16.913,0.0146223,-0.00447652
1.42568,0.709528,17.113,0.0148265,-0.00453491
1.44189,0.712072,17.313,0.0149439,-0.0046278
1.45938,0.715015,17.513,0.0151237,-0.00466003
1.47534,0.721509,17.713,0.0152827,-0.004739
1.49272,0.728456,17.913,0.0155102,-0.0047943
1.50884,0.728585,18.113,0.0156743,-0.0047149
1.52603,0.732323,18.313,0.0160382,-0.00478802
1.54263,0.740063,18.513,0.0163038,-0.00483703
1.55928,0.745374,18.713,0.0164286,-0.00490164
1.57588,0.751541,18.913,0.0165897,-0.00499469
1.59248,0.753351,19.113,0.0166951,-0.00507184
1.60898,0.756283,19.313,0.0167779,-0.0052301
1.62607,0.763749,19.513,0.0169103,-0.00520668
1.64214,0.766935,19.713,0.0171204,-0.00534411
1.65938,0.76908,19.913,0.0174051,-0.00537821
1.67544,0.773486,20.113,0.0176312,-0.00526605
1.69297,0.777818,20.313,0.0178093,-0.00530887
1.70913,0.7844,20.513,0.0180204,-0.00537973
1.72603,0.783367,20.713,0.0181556,-0.00549544
1.74224,0.790445,20.913,0.0184401,-0.00556294
1.75894,0.793741,21.113,0.0186013,-0.0056917
1.77578,0.796475,21.313,0.0189149,-0.00572467
1.79253,0.800221,21.513,0.019207,-0.00585754
1.80894,0.800951,21.713,0.0194354,-0.00581901
1.82588,0.805439,21.913,0.0195493,-0.00592369
1.84214,0.809495,22.113,0.0196702,-0.00593657
1.85972,0.813068,22.313,0.019835,-0.00596446
1.87568,0.814328,22.513,0.0199779,-0.00601409
1.89287,0.818438,22.713,0.0202127,-0.00615048
1.90884,0.818965,22.913,0.0204436,-0.00618526
1.92578,0.819604,23.113,0.0207203,-0.00628445
1.94233,0.824573,23.313,0.0209623,-0.00633837
1.95913,0.825044,23.513,0.0211906,-0.00641763
1.97578,0.825722,23.713,0.0213449,-0.00644032
1.99248,0.830332,23.913,0.0215995,-0.00655899
2.00908,0.832489,24.113,0.0218681,-0.00669872
2.02617,0.832429,24.313,0.0221033,-0.00668209
2.04243,0.832993,24.513,0.0224385,-0.00662632
2.05962,0.833862,24.713,0.0227459,-0.0067435
2.07539,0.835017,24.913,0.0228699,-0.00685387
2.09282,0.836861,25.113,0.0230243,-0.00684068
2.10903,0.836604,25.313,0.0232337,-0.00696757
2.12607,0.839807,25.513,0.0234025,-0.00706765
2.14248,0.840677,25.713,0.0237185,-0.00718668
2.15918,0.840962,25.913,0.0240642,-0.00721084
2.17603,0.842858,26.113,0.0243619,-0.00732851
2.19277,0.844699,26.313,0.0244336,-0.00738742
2.20923,0.843365,26.513,0.0246916,-0.00741987
2.22607,0.845759,26.713,0.0250232,-0.00738455
2.24214,0.843355,26.913,0.0252433,-0.00745833
2.25947,0.843113,27.113,0.0255162,-0.0075984
2.27539,0.84585,27.313,0.0257417,-0.00762933
2.29277,0.847464,27.513,0.0261162,-0.00771272
2.30879,0.843068,27.713,0.0262894,-0.00781663
2.32583,0.846037,27.913,0.0265514,-0.00785954
2.34248,0.845941,28.113,0.0268652,-0.00790095
2.35923,0.843591,28.313,0.0272028,-0.00803036
2.37603,0.843679,28.513,0.0274526,-0.00814423
2.39268,0.842028,28.713,0.027723,-0.00821388
2.40913,0.841388,28.913,0.0279988,-0.00824251
2.42612,0.846196,29.113,0.0282162,-0.00830005
2.44229,0.841353,29.313,0.0285557,-0.00831288
2.45957,0.842337,29.513,0.0288337,-0.00840348
2.47554,0.840132,29.713,0.0291737,-0.008487
2.49292,0.842574,29.913,0.0293914,-0.0085045
2.50903,0.840232,30.113,0.0297512,-0.00864681
2.52598,0.839937,30.313,0.0300204,-0.00864162
2.54238,0.838653,30.513,0.0302481,-0.00872925
2.55913,0.837042,30.713,0.0305351,-0.00880147
2.57588,0.839409,30.913,0.0309439,-0.00886906
2.59248,0.838278,31.113,0.031298,-0.00899916
2.60889,0.838766,31.313,0.0316008,-0.00903231
2.62583,0.836761,31.513,0.0319717,-0.00902142
2.64209,0.834514,31.713,0.0322354,-0.00914272
2.65967,0.834942,31.913,0.032509,-0.00916358
2.67568,0.833688,32.113,0.03276,-0.00920454
2.69312,0.836103,32.313,0.0331529,-0.00926727
2.70928,0.832871,32.513,0.0335168,-0.00931214
2.72637,0.831418,32.713,0.0338393,-0.00937089
2.74292,0.829115,32.913,0.0342478,-0.00946007
2.75952,0.829148,33.113,0.0344767,-0.00957223
2.77612,0.831671,33.313,0.0347946,-0.00957391
2.79272,0.82772,33.513,0.0350328,-0.00969396
2.80928,0.827906,33.713,0.0353815,-0.00968676
2.82637,0.82838,33.913,0.0356694,-0.00979568
2.84253,0.824937,34.113,0.0360682,-0.00992835
2.85977,0.82429,34.313,0.0363426,-0.00995644
2.87563,0.824487,34.513,0.0368042,-0.0100651
2.89316,0.825349,34.713,0.0368859,-0.0101424
2.90928,0.824311,34.913,0.0373638,-0.0101954
2.92617,0.822894,35.113,0.0376139,-0.0102418
2.94253,0.819733,35.313,0.0379142,-0.0103
2.95918,0.820528,35.513,0.0382574,-0.0103571
2.97593,0.821172,35.713,0.0385714,-0.0104164
2.99263,0.816778,35.913,0.0389827,-0.0105141
3.00903,0.818613,36.113,0.0392201,-0.0105521
3.02593,0.81732,36.313,0.0396253,-0.0106488
3.04224,0.815909,36.513,0.0400111,-0.0106881
3.05972,0.816875,36.713,0.040302,-0.0108162
3.07578,0.814812,36.913,0.0405294,-0.01094
3.09316,0.815305,37.113,0.0408786,-0.0110089
3.10913,0.815519,37.313,0.0412878,-0.0110441
3.12622,0.812685,37.513,0.0415133,-0.0111263
3.14282,0.812886,37.713,0.0419385,-0.0112656
3.15947,0.812287,37.913,0.0421798,-0.0113749
3.17607,0.811187,38.113,0.0427586,-0.0114507
3.19268,0.810272,38.313,0.0429762,-0.0114812
3.20908,0.809837,38.513,0.0432886,-0.0116021
3.22617,0.808841,38.713,0.043483,-0.0116616
3.24233,0.806922,38.913,0.0437572,-0.0118285
3.25947,0.802607,39.113,0.044059,-0.0117614
3.27524,0.796821,39.313,0.0444203,-0.0118921
3.28037,-0.0827066,39.374,0.0444711,-0.011938