Folder: An-experimental-and-numerical-study-of-the-mechanical-response-of-3D-printed-semicrystalline-polymer/Raw_Data./Tensile Nozzle 0.4 mm/45 Degrees/LH0.2_45D_N0.4

File: Test 1.csv
Crosshead ,Load ,Time ,Strain 1 ,Strain 2
0.004248047,-0.006704236,0.116,-5.25E-05,1.82E-05
0.0172852,0.00331959,0.316,1.25E-05,1.77E-05
0.0339355,0.0181989,0.516,0.000162021,-5.37E-05
0.051416,0.0318303,0.716,0.00038675,-0.000139609
0.0688477,0.0444873,0.916,0.00054173,-0.000172775
0.0868652,0.0614979,1.116,0.000807501,-0.000272285
0.104199,0.0721772,1.316,0.00101496,-0.00040331
0.121875,0.0845522,1.516,0.001094,-0.000428752
0.139111,0.0995451,1.716,0.00133687,-0.000472427
0.156396,0.113142,1.916,0.00155953,-0.000599017
0.174268,0.12848,2.116,0.00168698,-0.000599335
0.190918,0.138666,2.316,0.00195093,-0.000724788
0.208594,0.154194,2.516,0.00226924,-0.000814435
0.224707,0.166925,2.716,0.00239206,-0.000835132
0.242187,0.180819,2.916,0.0024794,-0.000906776
0.25835,0.189371,3.116,0.00263897,-0.000889312
0.275342,0.202362,3.316,0.00284881,-0.00100438
0.291748,0.211638,3.516,0.0030937,-0.00115123
0.308496,0.220616,3.716,0.00325323,-0.00115867
0.325488,0.231467,3.916,0.00349203,-0.00124128
0.342383,0.242646,4.116,0.00363204,-0.00135425
0.359082,0.254451,4.316,0.0037944,-0.00136971
0.376025,0.266351,4.516,0.00395817,-0.00148406
0.392334,0.278479,4.716,0.00420094,-0.00149608
0.40957,0.287026,4.916,0.00437968,-0.00161496
0.425586,0.295938,5.116,0.00463265,-0.00120051
0.44292,0.305855,5.316,0.00480429,-0.00164522
0.458984,0.317831,5.516,0.00493759,-0.00176952
0.476074,0.324195,5.716,0.00518043,-0.00191297
0.492627,0.335347,5.916,0.00528832,-0.00190962
0.509521,0.339985,6.116,0.00547037,-0.00196659
0.526416,0.351241,6.316,0.00565788,-0.00211172
0.542969,0.361739,6.516,0.00594978,-0.00214547
0.559619,0.36865,6.716,0.00614992,-0.00223523
0.576416,0.379762,6.916,0.00625835,-0.0023061
0.592627,0.386852,7.116,0.00637673,-0.00221717
0.609668,0.396364,7.316,0.00667304,-0.00229757
0.625586,0.402772,7.516,0.00681025,-0.00235371
0.642969,0.409891,7.716,0.00699081,-0.00249542
0.659082,0.418472,7.916,0.00722711,-0.00262796
0.675977,0.427514,8.116,0.00739188,-0.00267632
0.692432,0.43238,8.316,0.00759681,-0.00278881
0.709229,0.442206,8.516,0.00774009,-0.00289096
0.726123,0.450682,8.716,0.00784311,-0.00290455
0.742773,0.459494,8.916,0.00813037,-0.00292551
0.759277,0.46543,9.116,0.00831862,-0.00269604
0.775977,0.470949,9.316,0.0085098,-0.00290484
0.792285,0.478803,9.516,0.00865922,-0.00305405
0.809619,0.484532,9.716,0.00894234,-0.00321694
0.825732,0.493564,9.916,0.00906103,-0.00328973
0.843066,0.498568,10.116,0.00925061,-0.00337791
0.859131,0.505826,10.316,0.0095437,-0.00344783
0.87627,0.511861,10.516,0.00966763,-0.00355578
0.892871,0.518784,10.716,0.00980144,-0.0036302
0.909521,0.524056,10.916,0.00997449,-0.00371216
0.926221,0.531805,11.116,0.0101573,-0.00345592
0.942676,0.537225,11.316,0.0103363,-0.0036253
0.959277,0.544184,11.516,0.0105005,-0.00371574
0.97627,0.548088,11.716,0.0107262,-0.00385158
0.992529,0.55534,11.916,0.0110354,-0.00391658
1.00967,0.564561,12.116,0.0110762,-0.00408627
1.02588,0.567342,12.316,0.0113341,-0.00414942
1.04346,0.576831,12.516,0.0115123,-0.00421942
1.05972,0.579779,12.716,0.0117289,-0.00433494
1.07666,0.584131,12.916,0.0118873,-0.00392423
1.09287,0.591273,13.116,0.0120839,-0.00450702
1.10942,0.594664,13.316,0.0121666,-0.00462264
1.12617,0.601183,13.516,0.0124841,-0.00473624
1.14272,0.608304,13.716,0.0125855,-0.00476875
1.15918,0.611629,13.916,0.012777,-0.00494936
1.17593,0.617938,14.116,0.0128894,-0.00498463
1.19224,0.619851,14.316,0.0131176,-0.00515287
1.209668,0.62999,14.516,0.0133706,-0.00529391
1.22583,0.632297,14.716,0.0134679,-0.00544733
1.24312,0.635308,14.916,0.0136406,-0.00518346
1.25918,0.643702,15.116,0.0139606,-0.00524976
1.27622,0.647161,15.316,0.0141502,-0.00538444
1.29282,0.65015,15.516,0.0142324,-0.00547163
1.30962,0.658786,15.716,0.0144952,-0.00552779
1.32637,0.662347,15.916,0.0146735,-0.00561381
1.34287,0.667342,16.116,0.0148873,-0.00576181
1.35952,0.672191,16.316,0.0150011,-0.00580476
1.37642,0.675558,16.516,0.0153614,-0.00596196
1.39277,0.6806651,16.716,0.015509,-0.00622355
1.40986,0.685697,16.916,0.0156357,-0.00595715
1.42573,0.688126,17.116,0.0158877,-0.00593594
1.44316,0.692738,17.316,0.0159148,-0.00613426
1.45928,0.69755,17.516,0.0162327,-0.00627612
1.47627,0.698961,17.716,0.0163969,-0.00632334
1.49268,0.704529,17.916,0.016628,-0.00640784
1.50933,0.708588,18.116,0.0169172,-0.00650648
1.52622,0.712499,18.316,0.0170445,-0.00659025
1.54292,0.716557,18.516,0.0171724,-0.00669712
1.55957,0.716551,18.716,0.0173773,-0.00684316
1.57627,0.720716,18.916,0.0175595,-0.00671712
1.59258,0.726492,19.116,0.0178357,-0.00690233
1.60977,0.725266,19.316,0.0180361,-0.00695093
1.62578,0.730487,19.516,0.0181717,-0.00709777
1.64307,0.735229,19.716,0.0185276,-0.00720038
1.65918,0.73713,19.916,0.018681,-0.00728793
1.67637,0.743054,20.116,0.0187432,-0.00735253
1.69302,0.745404,20.316,0.0189661,-0.00747033
1.70981,0.745954,20.516,0.0192813,-0.0075216
1.72656,0.749683,20.716,0.0194568,-0.00760595
1.74307,0.750293,20.916,0.0196871,-0.00773557
1.75962,0.755271,21.116,0.0197691,-0.00779722
1.77642,0.758427,21.316,0.0201253,-0.00785034
1.79258,0.761243,21.516,0.0203067,-0.00794698
1.80967,0.761008,21.716,0.0204667,-0.00812196
1.82568,0.764249,21.916,0.02077,-0.00814468
1.84307,0.768776,22.116,0.0209701,-0.00827619
1.85913,0.76761,22.316,0.021215,-0.00838018
1.87617,0.769616,22.516,0.021262,-0.00846427
1.89253,0.770694,22.716,0.0215949,-0.00820888
1.90933,0.775109,22.916,0.0217295,-0.0087347
1.92622,0.775987,23.116,0.0219874,-0.00885757
1.94282,0.780125,23.316,0.0222319,-0.00898999
1.95942,0.778634,23.516,0.0225049,-0.00905676
1.97622,0.781468,23.716,0.0227588,-0.00913577
1.99258,0.783502,23.916,0.0228572,-0.00925439
2.00991,0.787677,24.116,0.0233084,-0.00931999
2.02603,0.787801,24.316,0.0233765,-0.00942852
2.04331,0.789313,24.516,0.0235181,-0.00947197
2.05947,0.790443,24.716,0.0237895,-0.00928964
2.07646,0.791696,24.916,0.0240514,-0.00988699
2.09292,0.797763,25.116,0.0243052,-0.00998558
2.10947,0.795858,25.316,0.0245012,-0.0101276
2.12607,0.792595,25.516,0.0245148,-0.0101817
2.14263,0.793366,25.716,0.0250428,-0.0102958
2.15923,0.796671,25.916,0.025161,-0.010375
2.17612,0.798224,26.116,0.0253964,-0.0104888
2.19243,0.794567,26.316,0.0256956,-0.010613
2.20957,0.801761,26.516,0.0258449,-0.0106259
2.22559,0.798602,26.716,0.026139,-0.0104827
2.24312,0.799355,26.916,0.0263197,-0.0106228
2.25933,0.800962,27.116,0.0267923,-0.01111
2.27622,0.801146,27.316,0.0270017,-0.0112921
2.29253,0.803093,27.516,0.0271461,-0.0114387
2.30933,0.801182,27.716,0.0273648,-0.0115601
2.32622,0.801037,27.916,0.027703,-0.0116326
2.34292,0.803981,28.116,0.0278673,-0.0117323
2.35942,0.803485,28.316,0.0281548,-0.0118079
2.37617,0.806223,28.516,0.0285258,-0.0118798
2.39248,0.801328,28.716,0.0287865,-0.0119394
2.40981,0.804956,28.916,0.0291546,-0.0121009
2.42583,0.803064,29.116,0.0292022,-0.012516
2.44297,0.803169,29.316,0.0294954,-0.012693
2.45884,0.80446,29.516,0.029643,-0.0127905
2.47588,0.804439,29.716,0.0299327,-0.0129049
2.49243,0.804107,29.916,0.0304621,-0.0130341
2.50918,0.803661,30.116,0.0306961,-0.0131201
2.52598,0.804403,30.316,0.0309716,-0.0132578
2.54258,0.803937,30.516,0.03108,-0.0132549
2.55933,0.805843,30.716,0.0313683,-0.0134331
2.57642,0.803307,30.916,0.031574,-0.0135531
2.59282,0.802991,31.116,0.0319009,-0.013585
2.60991,0.802483,31.316,0.0324646,-0.0139952
2.62578,0.800954,31.516,0.0325195,-0.0141741
2.64316,0.803431,31.716,0.032833,-0.0143703
2.65928,0.804494,31.916,0.0329933,-0.0144852
2.67632,0.800014,32.116,0.0332248,-0.0146328
2.69268,0.805813,32.316,0.0334908,-0.0149119
2.70933,0.803071,32.516,0.0337411,-0.0147759
2.72622,0.801514,32.716,0.0343246,-0.014886
2.74292,0.801222,32.916,0.0346945,-0.0149831
2.75962,0.802188,33.116,0.0349754,-0.0151847
2.77622,0.800656,33.316,0.0350489,-0.0154644
2.79238,0.800431,33.516,0.0352805,-0.0157867
2.80957,0.80019,33.716,0.0355085,-0.0159755
2.82549,0.802083,33.916,0.0357981,-0.0161225
2.84277,0.800926,34.116,0.0364855,-0.0162296
2.85894,0.797578,34.316,0.0367123,-0.0164047
2.87603,0.797104,34.516,0.0370288,-0.0166181
2.89258,0.792847,34.716,0.0371292,-0.0165942
2.90957,0.700852,34.916,0.0367019,-0.0167258
2.91152,-0.0663798,34.94,0.0367019,-0.0167258

File: Test 2.csv
Crosshead ,Load ,Time ,Strain 1 ,Strain 2
0.003857422,-0.000168058,0.118,-2.67E-05,-9.75E-06
0.0174316,0.0134386,0.318,2.57E-06,-3.46E-05
0.0341309,0.0284883,0.518,0.000221584,-3.45E-05
0.0521973,0.0437122,0.718,0.000386514,-0.000124469
0.06943359,0.0573368,0.918,0.000578671,-0.00016835
0.0875,0.0766427,1.118,0.00071276,-0.000302008
0.104346,0.0923009,1.318,0.00094077,-0.000320815
0.122363,0.105709,1.518,0.00113825,-0.000370421
0.139258,0.121491,1.718,0.00122912,-0.000393391
0.156934,0.136461,1.918,0.0015922,-0.00050203
0.173926,0.14919,2.118,0.00182862,-0.000543342
0.191113,0.166378,2.318,0.00203144,-0.000644834
0.208301,0.178614,2.518,0.00214968,-0.000709855
0.225,0.188872,2.718,0.00230533,-0.000738885
0.241748,0.203047,2.918,0.00246438,-0.000837242
0.258496,0.215366,3.118,0.0025984,-0.000891028
0.274951,0.228559,3.318,0.0027481,-0.000875458
0.292187,0.242898,3.518,0.0030683,-0.00099135
0.308447,0.2577341,3.718,0.00322439,-0.00102208
0.32583,0.268999,3.918,0.00344985,-0.00112931
0.342139,0.279028,4.118,0.00364055,-0.00117307
0.359326,0.291744,4.318,0.00383632,-0.00124689
0.375977,0.30354,4.518,0.00395268,-0.00123332
0.392725,0.314904,4.718,0.00412386,-0.00129526
0.409521,0.324385,4.918,0.00429984,-0.00141045
0.425928,0.336136,5.118,0.00447805,-0.00142391
0.442871,0.345968,5.318,0.00467512,-0.00143307
0.45957,0.357286,5.518,0.0047899,-0.00154248
0.476025,0.36925,5.718,0.00497687,-0.00157722
0.492969,0.378074,5.918,0.00508843,-0.00161368
0.509228,0.386586,6.118,0.00538786,-0.00171074
0.526611,0.395923,6.318,0.00553321,-0.0017333
0.542871,0.408259,6.518,0.00593693,-0.00180414
0.559766,0.417177,6.718,0.00616135,-0.00188444
0.575977,0.430003,6.918,0.00629333,-0.00189796
0.592529,0.437293,7.118,0.00644111,-0.00195437
0.609473,0.445691,7.318,0.006561,-0.00199565
0.62583,0.456474,7.518,0.00664464,-0.00210709
0.64248,0.463497,7.718,0.0068206,-0.00213641
0.659082,0.473411,7.918,0.00706829,-0.00226404
0.675684,0.485018,8.118,0.0072342,-0.00231572
0.69292,0.497326,8.318,0.00743252,-0.0023655
0.70918,0.501457,8.518,0.00759913,-0.00228444
0.726367,0.509033,8.718,0.00776186,-0.00239976
0.74248,0.518017,8.918,0.00792642,-0.00249623
0.759473,0.526537,9.118,0.00821656,-0.0025208
0.776123,0.534507,9.318,0.00840111,-0.0025685
0.79292,0.542886,9.518,0.00871304,-0.00267931
0.809717,0.552241,9.718,0.0088548,-0.0027716
0.826074,0.562535,9.918,0.00897803,-0.00283358
0.843066,0.566744,10.118,0.00910417,-0.00286327
0.859766,0.575688,10.318,0.00920335,-0.00290035
0.87627,0.583239,10.518,0.00951281,-0.00291916
0.893115,0.590294,10.718,0.00964181,-0.00295977
0.909229,0.599658,10.918,0.00988123,-0.00305342
0.926563,0.605616,11.118,0.0100762,-0.00308242
0.942773,0.611588,11.318,0.0103161,-0.00315689
0.959766,0.621325,11.518,0.0104194,-0.00321869
0.976074,0.628116,11.718,0.0106519,-0.00330796
0.992773,0.634353,11.918,0.0108055,-0.00336434
1.00977,0.643497,12.118,0.0110007,-0.0034195
1.02642,0.648983,12.318,0.0112382,-0.00336922
1.04321,0.6575,12.518,0.0113813,-0.0034369
1.05972,0.66623,12.718,0.0115994,-0.00352652
1.07612,0.669579,12.918,0.0116935,-0.00357298
1.09312,0.675705,13.118,0.0118665,-0.00364836
1.10933,0.681916,13.318,0.0120314,-0.00365195
1.12646,0.689868,13.518,0.0122741,-0.00374621
1.14258,0.695909,13.718,0.0124999,-0.00386669
1.15967,0.701181,13.918,0.0127679,-0.00390054
1.17617,0.709609,14.118,0.0130086,-0.00396537
1.19292,0.716139,14.318,0.0131172,-0.00389022
1.20981,0.721867,14.518,0.0132895,-0.00385986
1.22627,0.726329,14.718,0.0134095,-0.00392269
1.24307,0.731012,14.918,0.0136033,-0.00397296
1.25967,0.738275,15.118,0.0137771,-0.00411939
1.27607,0.743841,15.318,0.0140863,-0.00424286
1.29287,0.752014,15.518,0.0142451,-0.00429735
1.30913,0.754615,15.718,0.0144058,-0.00433645
1.32646,0.759725,15.918,0.0145644,-0.00436594
1.34263,0.766749,16.118,0.0147409,-0.00432164
1.35972,0.772128,16.318,0.0149103,-0.00439398
1.37617,0.774322,16.518,0.0151868,-0.00450502
1.39292,0.782196,16.718,0.0154644,-0.00452275
1.40981,0.789353,16.918,0.0156642,-0.00449198
1.42617,0.790915,17.118,0.0158188,-0.00457084
1.44292,0.798896,17.318,0.0159261,-0.00467716
1.45942,0.801671,17.518,0.0160717,-0.00487388
1.47593,0.806616,17.718,0.0162229,-0.00480753
1.49292,0.809904,17.918,0.0164566,-0.00486513
1.50913,0.813451,18.118,0.0166799,-0.00491319
1.52637,0.818662,18.318,0.0169858,-0.00495503
1.54263,0.824922,18.518,0.0171311,-0.00499425
1.55967,0.829155,18.718,0.0173807,-0.00499864
1.57617,0.829588,18.918,0.0175858,-0.00507806
1.59277,0.833975,19.118,0.0177671,-0.00508342
1.60952,0.838868,19.318,0.0180059,-0.00520699
1.62593,0.840941,19.518,0.018179,-0.00527934
1.64292,0.849635,19.718,0.0184198,-0.00527596
1.65962,0.85396,19.918,0.0185153,-0.00540986
1.67603,0.850569,20.118,0.0186795,-0.00542703
1.69282,0.85741,20.318,0.0188699,-0.0054878
1.70898,0.857374,20.518,0.0191311,-0.00555761
1.72632,0.862427,20.718,0.0193811,-0.00557436
1.74243,0.864148,20.918,0.0196668,-0.00564274
1.75928,0.866711,21.118,0.0199864,-0.00575479
1.77563,0.869039,21.318,0.0201192,-0.00576415
1.79229,0.873422,21.518,0.0203767,-0.00578072
1.80928,0.87725,21.718,0.0205291,-0.00581155
1.82588,0.876897,21.918,0.0207438,-0.00584952
1.84272,0.877082,22.118,0.0209135,-0.0059232
1.85933,0.882619,22.318,0.0211719,-0.00600907
1.87607,0.883127,22.518,0.0213822,-0.00603479
1.89321,0.882812,22.718,0.021562,-0.00609577
1.90962,0.886124,22.918,0.0217732,-0.00614441
1.92676,0.889494,23.118,0.0219959,-0.0061945
1.94282,0.891649,23.318,0.0223148,-0.00621036
1.95981,0.888877,23.518,0.0225593,-0.00622642
1.97632,0.890498,23.718,0.0228897,-0.0063441
1.99302,0.895949,23.918,0.0230539,-0.00637195
2.00981,0.89127,24.118,0.0233146,-0.00641523
2.02617,0.897349,24.318,0.0234812,-0.00647697
2.04307,0.891152,24.518,0.0236551,-0.0064879
2.05972,0.896729,24.718,0.023842,-0.0066504
2.07617,0.896897,24.918,0.0241053,-0.00669232
2.09297,0.897357,25.118,0.0243482,-0.00670131
2.10913,0.903951,25.318,0.0246158,-0.00671634
2.12637,0.900761,25.518,0.0248145,-0.00668188
2.14253,0.899401,25.718,0.0251057,-0.00675206
2.15947,0.900253,25.918,0.0253953,-0.00685804
2.17573,0.900732,26.118,0.0256496,-0.00688083
2.19243,0.8973573,26.318,0.0259886,-0.00695931
2.20942,0.900104,26.518,0.0261964,-0.00696294
2.22598,0.900807,26.718,0.026456,-0.00708009
2.24292,0.900415,26.918,0.0266497,-0.00705763
2.25952,0.906445,27.118,0.0268523,-0.00708345
2.27603,0.902492,27.318,0.0270193,-0.00719616
2.29307,0.901457,27.518,0.0273305,-0.007319
2.30928,0.903469,27.718,0.0276738,-0.00733218
2.32646,0.903391,27.918,0.0279774,-0.00741302
2.34263,0.903863,28.118,0.0281186,-0.00745228
2.35962,0.901848,28.318,0.0283712,-0.00744177
2.37612,0.903212,28.518,0.0287604,-0.00749331
2.39282,0.898912,28.718,0.0289956,-0.0075383
2.40957,0.901425,28.918,0.0293242,-0.00761972
2.42593,0.905144,29.118,0.0295815,-0.00766777
2.44277,0.899992,29.318,0.0299224,-0.00778306
2.45937,0.897251,29.518,0.0300812,-0.00786544
2.47583,0.89619,29.718,0.0303644,-0.00787184
2.49268,0.896052,29.918,0.0305004,-0.0078698
2.50894,0.897969,30.118,0.0308599,-0.00798654
2.52642,0.897672,30.318,0.0312597,-0.00803467
2.54268,0.898446,30.518,0.0315428,-0.00808745
2.55972,0.895556,30.718,0.0319165,-0.00811395
2.57612,0.897965,30.918,0.0320864,-0.00821385
2.59292,0.896989,31.118,0.0324363,-0.00824738
2.60986,0.456422,31.318,0.0326533,-0.0082874
2.61069,-0.08607933,31.328,0.0326533,-0.0082874

File: Test 3.csv
Crosshead ,Load ,Time ,Strain 1 ,Strain 2
0.004003906,-0.005354331,0.117,-1.67E-05,6.08E-05
0.0171875,0.006571075,0.317,2.60E-05,5.28E-06
0.0340332,0.0227752,0.517,0.000227479,-2.27E-05
0.05126953,0.0336568,0.717,0.000418554,-8.42E-05
0.0688965,0.0504699,0.917,0.000519033,-0.000108851
0.0866699,0.06609745,1.117,0.000893566,-0.000453586
0.104102,0.0818064,1.317,0.00101978,-0.000507085
0.121826,0.09654303,1.517,0.0010751,-0.00057675
0.138867,0.109516,1.717,0.00132936,-0.000636878
0.156494,0.124514,1.917,0.00160555,-0.000611431
0.173828,0.137712,2.117,0.00188229,-0.000633337
0.19082,0.150152,2.317,0.00192979,-0.000646491
0.208154,0.163208,2.517,0.00219375,-0.0006696
0.224561,0.177232,2.717,0.00236685,-0.000729156
0.24209,0.190867,2.917,0.00263943,-0.000993864
0.258203,0.199395,3.117,0.00287886,-0.00107992
0.275537,0.212913,3.317,0.00314621,-0.00114913
0.29165,0.222075,3.517,0.00333175,-0.00115804
0.30874,0.235868,3.717,0.00342349,-0.00114691
0.325391,0.245832,3.917,0.00355056,-0.00121507
0.342285,0.260801,4.117,0.00371635,-0.00121709
0.35918,0.272199,4.317,0.00388484,-0.00126056
0.375977,0.285285,4.517,0.00421886,-0.0013045
0.392529,0.293334,4.717,0.00434944,-0.00139044
0.40957,0.304142,4.917,0.00464637,-0.00158042
0.425684,0.314173,5.117,0.00475638,-0.0015815
0.44292,0.324754,5.317,0.00484512,-0.00166268
0.458887,0.33625,5.517,0.00515171,-0.00175861
0.476416,0.344185,5.717,0.00528997,-0.00176131
0.492676,0.353272,5.917,0.00554846,-0.00178092
0.509814,0.363884,6.117,0.00574498,-0.001837
0.526221,0.374307,6.317,0.0060768,-0.00188569
0.543018,0.382311,6.517,0.00586121,-0.00190009
0.559814,0.391044,6.717,0.00619175,-0.00203959
0.576367,0.399762,6.917,0.00651533,-0.0021006
0.592725,0.406997,7.117,0.00669265,-0.002204
0.609521,0.419373,7.317,0.00683086,-0.00223636
0.625732,0.426334,7.517,0.00706009,-0.00230219
0.643164,0.435845,7.717,0.00730808,-0.00238774
0.65918,0.441083,7.917,0.00741529,-0.00237104
0.676562,0.451342,8.117,0.00764042,-0.00243692
0.692773,0.460734,8.317,0.00777622,-0.00252163
0.709863,0.465146,8.517,0.00808513,-0.00260058
0.726367,0.475972,8.717,0.00829074,-0.00262247
0.743018,0.481848,8.917,0.00828845,-0.00270129
0.759619,0.490252,9.117,0.00852663,-0.00279238
0.776172,0.497242,9.317,0.00872137,-0.00285855
0.792773,0.505241,9.517,0.00894535,-0.00287847
0.809814,0.51058,9.717,0.00911746,-0.00293665
0.826025,0.520791,9.917,0.00946191,-0.00301502
0.843262,0.525136,10.117,0.00954705,-0.00306348
0.859228,0.531659,10.317,0.00975687,-0.00315567
0.876807,0.540284,10.517,0.00989923,-0.00318467
0.892969,0.547237,10.717,0.0101779,-0.00358982
0.909863,0.553714,10.917,0.0103672,-0.00366661
0.926172,0.558603,11.117,0.010607,-0.00347043
0.942822,0.566121,11.317,0.0106663,-0.00349087
0.95957,0.567558,11.517,0.0108873,-0.00353664
0.976318,0.577749,11.717,0.0110748,-0.00352335
0.992725,0.587338,11.917,0.0113451,-0.00366527
1.00962,0.592123,12.117,0.0114458,-0.00368797
1.02598,0.596487,12.317,0.0116924,-0.00435369
1.04341,0.60311,12.517,0.0119143,-0.00418287
1.05947,0.608621,12.717,0.0120257,-0.00427643
1.07676,0.612997,12.917,0.0123819,-0.00425151
1.09263,0.621714,13.117,0.0124917,-0.00435966
1.10962,0.625321,13.317,0.0127231,-0.00445799
1.12612,0.633291,13.517,0.0128762,-0.00454073
1.14282,0.636959,13.717,0.0128979,-0.00416429
1.15952,0.642877,13.917,0.0131393,-0.00480881
1.17607,0.649912,14.117,0.0133442,-0.00491939
1.19268,0.654896,14.317,0.0137362,-0.00472821
1.20981,0.66032,14.517,0.0139038,-0.00472517
1.22603,0.664709,14.717,0.0141038,-0.00477646
1.24321,0.670969,14.917,0.0142198,-0.00480588
1.25908,0.674719,15.117,0.0144469,-0.00487921
1.27651,0.678812,15.317,0.0146268,-0.00501339
1.29263,0.683697,15.517,0.0148306,-0.00516709
1.30972,0.690604,15.717,0.0149522,-0.00536838
1.32612,0.694954,15.917,0.0153885,-0.00549737
1.34297,0.699456,16.117,0.0153209,-0.00538333
1.35986,0.704575,16.317,0.0154527,-0.00537736
1.37661,0.709185,16.517,0.0156964,-0.00543379
1.39316,0.710449,16.717,0.0160029,-0.00541297
1.40986,0.71859,16.917,0.0162225,-0.00545332
1.42583,0.721153,17.117,0.0166362,-0.00551865
1.44307,0.722609,17.317,0.016844,-0.00556531
1.45889,0.725296,17.517,0.0168618,-0.00602979
1.47607,0.730547,17.717,0.0170154,-0.00607221
1.49209,0.734351,17.917,0.0171997,-0.00614534
1.50903,0.738184,18.117,0.0174803,-0.00599046
1.52563,0.742586,18.317,0.0176747,-0.00603357
1.54243,0.745992,18.517,0.0181895,-0.00605063
1.55928,0.746903,18.717,0.0181528,-0.0060736
1.57607,0.748176,18.917,0.018406,-0.00618557
1.59258,0.752547,19.117,0.0185414,-0.00625671
1.60957,0.758726,19.317,0.0186314,-0.00639844
1.62578,0.75983,19.517,0.018894,-0.00680806
1.64302,0.762713,19.717,0.0190348,-0.00685389
1.65898,0.766787,19.917,0.0194752,-0.00669907
1.67646,0.771392,20.117,0.0196462,-0.00669865
1.69263,0.772554,20.317,0.0199743,-0.00667927
1.70972,0.774637,20.517,0.0201145,-0.00670823
1.72617,0.778524,20.717,0.0203739,-0.00682189
1.74292,0.778146,20.917,0.0205515,-0.00687777
1.75967,0.78184,21.117,0.0206157,-0.00741343
1.77627,0.784819,21.317,0.0208835,-0.00754963
1.79268,0.782904,21.517,0.0211051,-0.00743563
1.80942,0.786292,21.717,0.0213993,-0.00741171
1.82563,0.78731,21.917,0.0215425,-0.00738489
1.84307,0.792263,22.117,0.0217682,-0.00743118
1.85908,0.791072,22.317,0.0218623,-0.00743516
1.87651,0.791793,22.517,0.022245,-0.00753966
1.89263,0.793811,22.717,0.0224169,-0.00761237
1.90972,0.797054,22.917,0.0226814,-0.00812971
1.92627,0.797676,23.117,0.023008,-0.00822817
1.94292,0.798258,23.317,0.0227921,-0.00811302
1.95967,0.798038,23.517,0.0230234,-0.00809131
1.97632,0.801015,23.717,0.0232846,-0.00807813
1.99292,0.803729,23.917,0.0236808,-0.00809773
2.00991,0.803799,24.117,0.0238307,-0.00816736
2.02603,0.805451,24.317,0.0240922,-0.00828799
2.04326,0.8083,24.517,0.0243036,-0.00833535
2.05928,0.807103,24.717,0.0245062,-0.00886285
2.07676,0.809254,24.917,0.02469,-0.00892321
2.09282,0.808161,25.117,0.0248914,-0.00872079
2.10967,0.808321,25.317,0.025265,-0.0087118
2.12583,0.810343,25.517,0.0250376,-0.00877338
2.14248,0.809759,25.717,0.025283,-0.0088323
2.15928,0.811633,25.917,0.0255326,-0.00889555
2.17598,0.811042,26.117,0.025872,-0.00899662
2.19233,0.812485,26.317,0.0261085,-0.00943733
2.20918,0.812885,26.517,0.0264536,-0.009539
2.22549,0.812725,26.717,0.0266126,-0.00939001
2.24307,0.814271,26.917,0.0268432,-0.00939261
2.25913,0.811415,27.117,0.0270629,-0.00933554
2.27642,0.813607,27.317,0.0269794,-0.00943827
2.29238,0.813696,27.517,0.0271106,-0.00949173
2.30942,0.814725,27.717,0.0273306,-0.00959686
2.32607,0.813522,27.917,0.0276495,-0.00970215
2.34302,0.816034,28.117,0.0278389,-0.0101025
2.35977,0.81227,28.317,0.0283231,-0.00993812
2.37632,0.812213,28.517,0.0285876,-0.0100214
2.39287,0.814398,28.717,0.0288395,-0.0100485
2.40986,0.813045,28.917,0.0289287,-0.0100217
2.42612,0.811377,29.117,0.0292911,-0.0101845
2.44326,0.813112,29.317,0.0294751,-0.0103114
2.45903,0.814185,29.517,0.0293329,-0.0106888
2.47642,0.812623,29.717,0.0295541,-0.0107894
2.49263,0.814322,29.917,0.0298803,-0.0106048
2.50962,0.813759,30.117,0.0300981,-0.0106081
2.52607,0.814099,30.317,0.0303817,-0.0107013
2.54282,0.814188,30.517,0.0307161,-0.0107057
2.55972,0.814078,30.717,0.0309325,-0.0108836
2.57651,0.810419,30.917,0.0311207,-0.0109924
2.59307,0.812623,31.117,0.0314102,-0.0113038
2.60977,0.811386,31.317,0.0317302,-0.011459
2.62588,0.813291,31.517,0.0319131,-0.011493
2.64321,0.811666,31.717,0.0318438,-0.0113316
2.65918,0.810087,31.917,0.0319918,-0.011353
2.67646,0.814048,32.117,0.0322452,-0.0114139
2.69248,0.810466,32.317,0.0326305,-0.0115299
2.70962,0.809636,32.517,0.0329426,-0.0116947
2.72617,0.805534,32.717,0.03319,-0.0120355
2.74302,0.802574,32.917,0.0334373,-0.0120931
2.75981,0.809063,33.117,0.0335634,-0.0121402
2.77637,0.808033,33.317,0.0338282,-0.0119359
2.79282,0.806393,33.517,0.0341412,-0.0120359
2.80972,0.805934,33.717,0.0343584,-0.0120656
2.82578,0.800456,33.917,0.034384,-0.0122059
2.84302,0.769364,34.117,0.0346007,-0.0126323
2.85898,0.728499,34.317,0.0341166,-0.0120483
2.87646,0.707878,34.517,0.0332871,-0.0119268
2.89263,0.687935,34.717,0.0329956,-0.0122787
2.90981,0.213594,34.917,0.0328786,-0.011693
2.9104,-0.0284459,34.924,0.0328786,-0.011693