Folder: An-experimental-and-numerical-study-of-the-mechanical-response-of-3D-printed-semicrystalline-polymer/Raw_Data./Tensile Nozzle 0.4 mm/45 Degrees/LH0.2_45D_N0.4 (part 2)

File: Test 5.csv
Crosshead ,Load ,Time ,Strain 1 ,Strain 2
0.004150391,0.003423793,0.116,-5.14E-05,2.59E-06
0.0172852,0.0102309,0.316,-1.39E-05,1.96E-05
0.0342773,0.0235275,0.516,7.18E-05,-4.59E-05
0.0513672,0.0360606,0.716,0.000269155,-9.26E-05
0.0691406,0.0523914,0.916,0.000395439,-0.00016034
0.0868652,0.0666868,1.116,0.000511955,-0.000159813
0.104443,0.0780814,1.316,0.000677701,-0.000391956
0.12207,0.0933429,1.516,0.000927391,-0.000337024
0.13916,0.106523,1.716,0.00111324,-0.000493221
0.156787,0.118232,1.916,0.00134316,-0.00051724
0.174121,0.130695,2.116,0.00150788,-0.000535522
0.191016,0.141116,2.316,0.00166457,-0.000526069
0.208154,0.157444,2.516,0.00173436,-0.000598642
0.224463,0.163397,2.716,0.00189626,-0.000611155
0.242041,0.17905,2.916,0.00204899,-0.000661996
0.258154,0.188498,3.116,0.00222631,-0.000928142
0.275586,0.200779,3.316,0.00245415,-0.000966854
0.291797,0.214599,3.516,0.00267001,-0.000973192
0.308936,0.223353,3.716,0.00288958,-0.00104332
0.325537,0.233555,3.916,0.00303946,-0.00101366
0.342432,0.246258,4.116,0.00318946,-0.00109346
0.359277,0.259286,4.316,0.00328509,-0.00107756
0.375879,0.263147,4.516,0.00346981,-0.00117528
0.39248,0.276,4.716,0.00375704,-0.00119813
0.409326,0.284559,4.916,0.00395009,-0.00138115
0.425488,0.296103,5.116,0.00409565,-0.00145191
0.442676,0.303892,5.316,0.00418331,-0.00151093
0.458691,0.313354,5.516,0.0043572,-0.00158583
0.476172,0.32208,5.716,0.00450484,-0.00157387
0.492383,0.328771,5.916,0.004686,-0.00168597
0.509521,0.341474,6.116,0.004866,-0.00168093
0.525977,0.349377,6.316,0.00515322,-0.00171377
0.542725,0.359152,6.516,0.00537205,-0.00174891
0.55957,0.365731,6.716,0.00558207,-0.00180512
0.576025,0.374233,6.916,0.0057238,-0.00182062
0.592627,0.383313,7.116,0.0058967,-0.00200649
0.609277,0.390976,7.316,0.00605448,-0.00204149
0.625586,0.399493,7.516,0.00620921,-0.00213099
0.64292,0.405378,7.716,0.00636416,-0.00216859
0.658936,0.416333,7.916,0.00652046,-0.00219788
0.67627,0.422144,8.116,0.00679556,-0.00226245
0.692383,0.430237,8.316,0.00695379,-0.0022292
0.709521,0.43772,8.516,0.00712676,-0.00232115
0.725977,0.444964,8.716,0.007225,-0.00235075
0.742725,0.452268,8.916,0.00739913,-0.00247265
0.759375,0.461702,9.116,0.00767549,-0.00258362
0.775977,0.466043,9.316,0.00791723,-0.00262529
0.792725,0.473661,9.516,0.0080459,-0.00269124
0.809668,0.479143,9.716,0.00825778,-0.00274267
0.825928,0.484654,9.916,0.0084478,-0.00281738
0.842969,0.494082,10.116,0.00854982,-0.00283421
0.858887,0.498633,10.316,0.00870343,-0.00289526
0.876318,0.509597,10.516,0.00885266,-0.00298578
0.892432,0.513443,10.716,0.00906823,-0.00305596
0.909277,0.51839,10.916,0.0091861,-0.00308241
0.925537,0.525632,11.116,0.00951399,-0.00317976
0.942285,0.529863,11.316,0.00969559,-0.00327849
0.95918,0.536743,11.516,0.00998579,-0.00328315
0.975879,0.54241,11.716,0.0101499,-0.00328996
0.99248,0.553029,11.916,0.010289,-0.00335415
1.00933,0.55416,12.116,0.010485,-0.0034541
1.02583,0.563818,12.316,0.0106202,-0.00347734
1.04321,0.568397,12.516,0.0108331,-0.00357302
1.05947,0.572677,12.716,0.0110386,-0.0035936
1.07666,0.580679,12.916,0.0112445,-0.00370934
1.09272,0.583036,13.116,0.0113973,-0.0037399
1.10967,0.589849,13.316,0.011535,-0.0037986
1.12612,0.594737,13.516,0.0117612,-0.00383499
1.14287,0.599352,13.716,0.0118557,-0.00383648
1.15962,0.605017,13.916,0.0120401,-0.00393223
1.17612,0.609465,14.116,0.012339,-0.00396784
1.19277,0.615765,14.316,0.0126243,-0.0040718
1.209668,0.620073,14.516,0.012797,-0.00408762
1.22593,0.625263,14.716,0.0129788,-0.00420274
1.24302,0.629631,14.916,0.0130977,-0.00425913
1.25898,0.633108,15.116,0.0132628,-0.00430825
1.27637,0.639525,15.316,0.0134062,-0.00439325
1.29248,0.647371,15.516,0.0136158,-0.00441885
1.30947,0.6481,15.716,0.0137966,-0.00451996
1.32578,0.654889,15.916,0.0140261,-0.00459849
1.34253,0.658182,16.116,0.0142731,-0.00465517
1.35937,0.663608,16.316,0.0144145,-0.00467066
1.37607,0.66393,16.516,0.0145697,-0.00471498
1.39277,0.667872,16.716,0.0147518,-0.0047924
1.40957,0.672193,16.916,0.015023,-0.00485232
1.42588,0.676989,17.116,0.0151517,-0.00491564
1.44321,0.681897,17.317,0.0155015,-0.00500014
1.45923,0.686253,17.516,0.015663,-0.00497412
1.47642,0.689091,17.716,0.015832,-0.00509531
1.49248,0.691587,17.916,0.0159079,-0.00507282
1.50947,0.694906,18.116,0.01608,-0.00515617
1.52598,0.701319,18.316,0.0162387,-0.00526715
1.54272,0.70252,18.516,0.0164765,-0.00533689
1.55942,0.706937,18.716,0.0168179,-0.00548963
1.57593,0.710742,18.916,0.0170565,-0.00555008
1.59243,0.711742,19.116,0.0172656,-0.00564194
1.60928,0.715021,19.316,0.0173721,-0.00565077
1.62554,0.719998,19.516,0.0175765,-0.00570391
1.64268,0.720854,19.716,0.0177589,-0.00572243
1.65874,0.724716,19.916,0.0179991,-0.0059146
1.67627,0.725604,20.116,0.0181809,-0.00589627
1.69253,0.728943,20.316,0.0184318,-0.00599675
1.70957,0.732454,20.516,0.0186586,-0.00612772
1.72603,0.736123,20.716,0.0187423,-0.00620648
1.74277,0.736871,20.916,0.0189253,-0.00627213
1.75967,0.73974,21.116,0.0191072,-0.00628202
1.77627,0.741467,21.316,0.0193672,-0.00640879
1.79282,0.74428,21.516,0.0195852,-0.0064326
1.80957,0.746868,21.716,0.019909,-0.0065499
1.82588,0.745563,21.916,0.020118,-0.00662128
1.84307,0.749419,22.116,0.0202911,-0.00673524
1.85913,0.751077,22.316,0.0204599,-0.00677007
1.87646,0.751969,22.516,0.0206229,-0.0068891
1.89253,0.756247,22.716,0.0208075,-0.0069507
1.90962,0.758049,22.916,0.0210455,-0.00699955
1.92607,0.756462,23.116,0.0213361,-0.00710292
1.94258,0.756794,23.316,0.0215357,-0.00715797
1.95923,0.760144,23.516,0.0217094,-0.00728198
1.97573,0.762794,23.716,0.0218802,-0.00735766
1.99233,0.763638,23.916,0.0221334,-0.00748236
2.00933,0.76365,24.116,0.0222838,-0.00757764
2.02559,0.765432,24.316,0.0225994,-0.0076657
2.04277,0.765053,24.516,0.0228447,-0.00772602
2.05879,0.768472,24.716,0.0231382,-0.00778115
2.07632,0.766397,24.916,0.0232608,-0.00789482
2.09258,0.769692,25.116,0.0234698,-0.0079394
2.10952,0.772035,25.316,0.0237118,-0.00811098
2.12578,0.771285,25.516,0.0238628,-0.00812682
2.14243,0.772925,25.716,0.0240862,-0.00817649
2.15928,0.772363,25.916,0.0242954,-0.00828484
2.17598,0.775148,26.116,0.0245902,-0.00836943
2.19268,0.774021,26.316,0.0247577,-0.0085078
2.20942,0.775309,26.516,0.0250535,-0.00852641
2.22578,0.775277,26.716,0.0252406,-0.00866516
2.24316,0.773626,26.916,0.0254874,-0.00878498
2.25928,0.775144,27.116,0.0257005,-0.00885706
2.27646,0.779229,27.316,0.0260049,-0.00899845
2.29243,0.776401,27.516,0.0263422,-0.00909671
2.30942,0.778543,27.716,0.0264705,-0.00922774
2.32598,0.775076,27.916,0.0267137,-0.00933936
2.34282,0.779052,28.116,0.0268662,-0.00938261
2.35962,0.775958,28.316,0.0270842,-0.00951474
2.37617,0.777949,28.516,0.0272788,-0.00955912
2.39292,0.778978,28.716,0.0276419,-0.00961516
2.40981,0.77714,28.916,0.0279014,-0.0097408
2.42612,0.776361,29.116,0.0281285,-0.00987932
2.44307,0.774946,29.316,0.0283285,-0.0100641
2.45889,0.776123,29.516,0.0285791,-0.010133
2.47622,0.779912,29.716,0.0288207,-0.0102
2.49229,0.776781,29.916,0.0290757,-0.010343
2.50923,0.778587,30.116,0.0294111,-0.0104353
2.52563,0.778654,30.316,0.0296847,-0.0105063
2.54238,0.778168,30.516,0.0298503,-0.0105828
2.55938,0.777211,30.716,0.030014,-0.0106852
2.57612,0.778964,30.916,0.0302713,-0.010868
2.59282,0.778069,31.116,0.0304576,-0.0110266
2.60952,0.776115,31.316,0.0307231,-0.0111719
2.62583,0.775618,31.516,0.0310351,-0.011205
2.64292,0.776033,31.716,0.031399,-0.0112765
2.65898,0.776863,31.916,0.031589,-0.0112981
2.67622,0.778421,32.116,0.0318213,-0.0114339
2.69214,0.77396,32.316,0.0321454,-0.0115766
2.70923,0.777217,32.516,0.0322879,-0.01178
2.72583,0.776877,32.716,0.0326462,-0.0118868
2.74258,0.776323,32.916,0.0329081,-0.0120057
2.75933,0.775013,33.116,0.0332137,-0.0120653
2.77583,0.772827,33.316,0.0333285,-0.0121391
2.79229,0.775248,33.516,0.0336097,-0.0122876
2.80908,0.772644,33.716,0.0337922,-0.0123577
2.82524,0.773097,33.916,0.0340937,-0.0124983
2.84238,0.773816,34.116,0.0343514,-0.0125329
2.8584,0.777072,34.316,0.0347562,-0.0127544
2.87603,0.773966,34.516,0.0350434,-0.0128249
2.89243,0.774637,34.716,0.0351716,-0.012915
2.90967,0.770901,34.916,0.0354705,-0.0131126
2.92603,0.769623,35.116,0.0356464,-0.0131546
2.94277,0.770913,35.316,0.0360256,-0.0131802
2.95957,0.769455,35.516,0.0363102,-0.013365
2.97598,0.769232,35.716,0.0365755,-0.0134818
2.99248,0.769012,35.916,0.0368061,-0.0135445
3.00918,0.769519,36.116,0.0370062,-0.013706
3.02544,0.769831,36.316,0.0372687,-0.0137472
3.04282,0.663127,36.516,0.0376296,-0.0138237
3.05903,0.63458,36.716,0.0372676,-0.0125133
3.07642,0.620956,36.916,0.0370114,-0.0125502
3.09258,0.606093,37.116,0.0362957,-0.0120792
3.10796,-0.0598161,37.295,0.0368373,-0.0121507