Folder: An-experimental-and-numerical-study-of-the-mechanical-response-of-3D-printed-semicrystalline-polymer/Raw_Data./Tensile Nozzle 0.4 mm/45 Degrees/LH0.05_45D_N0.4/5/Test Run 1 02-21-20 12 28 03 PM

File: DAQ- Crosshead, … - (Timed).txt
File Path: C:\Users\MTS 300\Desktop\robin\eprouvette 45 lh005\test 5\Test Run 1 02-21-20 12 28 03 PM\DAQ- Crosshead, … - (Timed).txt
Test: Tensile test LEI 13
Test Run: Test Run 1
Date: 21/02/2020 12:26:26

Crosshead 	Load 	Time 	Strain 1 	Strain 2
mm	kN	sec	mm/mm	mm/mm
0.00419922	0.00145431	0.115	6.64597e-06	9.89774e-06
0.0174316	0.0155481	0.315	4.02168e-05	-7.57838e-06
0.0336914	0.0308609	0.515	0.000204921	-7.56907e-05
0.0509277	0.0475718	0.715	0.000330833	-0.0001527
0.0692871	0.0678095	0.915	0.000590553	-0.000199946
0.0866211	0.0859501	1.115	0.000669097	-0.000244605
0.104736	0.104211	1.315	0.000856943	1.38814e-05
0.121729	0.121445	1.515	0.00107979	-0.00030724
0.139453	0.139533	1.715	0.00113196	-0.000353996
0.156543	0.153721	1.915	0.0013549	-0.000395856
0.173926	0.169249	2.115	0.00163159	-0.000490759
0.190869	0.189201	2.315	0.00187753	-0.000562494
0.207812	0.204755	2.515	0.00196645	-0.000582808
0.224951	0.223389	2.715	0.00214951	-0.000689247
0.241992	0.238023	2.915	0.00229479	-0.000725206
0.258691	0.252944	3.115	0.00245063	-0.000773678
0.275732	0.268957	3.315	0.00261138	-0.000746936
0.291943	0.28403	3.515	0.00282322	-0.000799185
0.309326	0.299853	3.715	0.00300154	-0.000889376
0.325244	0.313484	3.915	0.00319778	-0.000913564
0.342529	0.330927	4.115	0.00334191	-0.00100288
0.358594	0.340919	4.315	0.00356704	-0.00104058
0.375684	0.357167	4.515	0.00374876	-0.00105978
0.392236	0.371216	4.715	0.00371217	-0.00110223
0.409082	0.385505	4.915	0.00395473	-0.00119505
0.42583	0.40184	5.115	0.00413928	-0.00128155
0.442578	0.415639	5.315	0.00432636	-0.00125082
0.459229	0.428176	5.515	0.00451735	-0.00129443
0.476221	0.440979	5.715	0.00476091	-0.00104441
0.492383	0.453143	5.915	0.00489307	-0.00143589
0.509619	0.469449	6.115	0.005048	-0.00147734
0.525635	0.479195	6.315	0.00518674	-0.00150665
0.543018	0.493857	6.515	0.00533054	-0.00161089
0.559082	0.505345	6.715	0.00542911	-0.00160469
0.576123	0.517835	6.915	0.00564485	-0.00165707
0.592578	0.529899	7.115	0.00592945	-0.00174557
0.609375	0.540473	7.315	0.00613561	-0.0017769
0.626221	0.554523	7.515	0.00640427	-0.00180929
0.642871	0.568675	7.715	0.00633627	-0.00179301
0.659277	0.579445	7.915	0.00653624	-0.00197948
0.676074	0.592735	8.115	0.00665117	-0.00202787
0.692236	0.604675	8.315	0.00685503	-0.00206211
0.709717	0.616292	8.515	0.00698786	-0.0020655
0.725684	0.628728	8.715	0.0072251	-0.00216127
0.743018	0.638969	8.915	0.00743742	-0.00208817
0.75918	0.650134	9.115	0.00764731	-0.00213297
0.776318	0.663931	9.315	0.00782148	-0.00221979
0.792822	0.675806	9.515	0.0079148	-0.00223833
0.809619	0.68336	9.715	0.00813686	-0.00227102
0.826172	0.693433	9.915	0.0082495	-0.0022574
0.842725	0.706747	10.115	0.00846052	-0.00222513
0.859228	0.719452	10.315	0.00865086	-0.00251436
0.876221	0.728133	10.515	0.00865502	-0.00258347
0.892383	0.740065	10.715	0.00890546	-0.0025765
0.909619	0.747269	10.915	0.00908786	-0.00260706
0.925537	0.759854	11.115	0.00927057	-0.00265008
0.943115	0.768242	11.315	0.00947751	-0.00271329
0.959277	0.777965	11.515	0.00963246	-0.00271391
0.976221	0.791906	11.715	0.00976748	-0.00272364
0.992529	0.8024	11.915	0.00996516	-0.0027344
1.00918	0.811436	12.115	0.0100624	-0.00276588
1.02603	0.819725	12.315	0.0102745	-0.00268859
1.04287	0.830812	12.515	0.0104655	-0.00303749
1.05938	0.839164	12.715	0.0107005	-0.00302759
1.07617	0.851172	12.915	0.0108505	-0.00307281
1.09248	0.859838	13.115	0.0110775	-0.00304779
1.10996	0.871103	13.315	0.0112653	-0.00310682
1.12607	0.88165	13.515	0.0112228	-0.00307308
1.14331	0.890658	13.715	0.0113498	-0.00313769
1.15913	0.897683	13.915	0.0116133	-0.00340652
1.17607	0.907321	14.115	0.0118724	-0.00345585
1.19253	0.915737	14.315	0.0120847	-0.00348909
1.20923	0.922279	14.515	0.0122799	-0.00378947
1.22593	0.932078	14.715	0.0123904	-0.00345914
1.24248	0.938921	14.915	0.0125629	-0.00342928
1.25908	0.946741	15.115	0.0126291	-0.00374397
1.27617	0.958587	15.315	0.012791	-0.00372399
1.29243	0.966	15.515	0.0129423	-0.00370216
1.30962	0.973685	15.715	0.0132086	-0.00377971
1.32554	0.982379	15.915	0.0134283	-0.00379287
1.34297	0.989588	16.115	0.0136951	-0.00379212
1.35908	0.997749	16.315	0.0139768	-0.00386666
1.37607	1.0075	16.515	0.0138066	-0.00392508
1.39243	1.01631	16.715	0.0140633	-0.00401455
1.40903	1.02407	16.915	0.0141726	-0.00430966
1.42593	1.02923	17.115	0.0144053	-0.00424057
1.44272	1.03972	17.315	0.0146789	-0.00424112
1.45938	1.04524	17.515	0.0148758	-0.00426
1.47622	1.05547	17.715	0.015059	-0.00423101
1.49238	1.06342	17.915	0.0152755	-0.00426026
1.50981	1.06649	18.115	0.0154192	-0.00427903
1.52578	1.075	18.315	0.0154838	-0.00434602
1.54302	1.08095	18.515	0.0158719	-0.00445436
1.55898	1.08922	18.715	0.0160578	-0.00453819
1.57593	1.09563	18.915	0.0163059	-0.00487408
1.59243	1.1024	19.115	0.0165577	-0.00473405
1.60938	1.10795	19.315	0.0168634	-0.00475776
1.62617	1.11536	19.515	0.016626	-0.00475843
1.64277	1.11928	19.715	0.0170064	-0.0047548
1.65933	1.12595	19.915	0.0171578	-0.00479728
1.67627	1.13168	20.115	0.0174057	-0.0048675
1.69253	1.13439	20.315	0.0175941	-0.00497436
1.70977	1.14412	20.515	0.0179681	-0.00506441
1.72568	1.14683	20.715	0.0180479	-0.00509132
1.74316	1.15329	20.915	0.01831	-0.00521664
1.75933	1.1569	21.115	0.0186483	-0.005584
1.77642	1.16091	21.315	0.0187969	-0.00540229
1.79287	1.16356	21.515	0.0190531	-0.00546104
1.80972	1.17047	21.715	0.0193685	-0.00547797
1.82651	1.17116	21.915	0.0196224	-0.00557799
1.84312	1.17681	22.115	0.0197177	-0.0056001
1.85947	1.17966	22.315	0.0201635	-0.00570336
1.87622	1.18174	22.515	0.0203443	-0.00576232
1.89238	1.18496	22.715	0.0205413	-0.00597516
1.90977	1.18803	22.915	0.0208833	-0.00607187
1.92583	1.19197	23.115	0.0210515	-0.00612602
1.94312	1.19584	23.315	0.0212105	-0.00649385
1.95913	1.19814	23.515	0.021544	-0.00628578
1.97617	1.20039	23.715	0.0218798	-0.00632723
1.99272	1.20532	23.915	0.0221649	-0.00639647
2.00947	1.20249	24.115	0.0225652	-0.00651306
2.02612	1.20686	24.315	0.0228608	-0.00661463
2.04272	1.20699	24.515	0.02317	-0.00676271
2.05918	1.20787	24.715	0.0233225	-0.00686703
2.07622	1.21078	24.915	0.0236767	-0.00705487
2.09248	1.21035	25.115	0.0239312	-0.00718386
2.10972	1.21266	25.315	0.0243147	-0.00733252
2.12578	1.21182	25.515	0.024784	-0.00731131
2.14321	1.21637	25.715	0.0252942	-0.00742188
2.15928	1.21863	25.915	0.025691	-0.00753061
2.17617	1.21682	26.115	0.0258614	-0.00763376
2.19238	1.21781	26.315	0.0262234	-0.00775974
2.20908	1.22095	26.515	0.0265363	-0.00789531
2.22593	1.22191	26.715	0.0269555	-0.00811134
2.24268	1.21867	26.915	0.0273154	-0.00823702
2.25923	1.21795	27.115	0.0278047	-0.00837264
2.27607	1.21878	27.315	0.0278117	-0.00847404
2.29229	1.21922	27.515	0.0281157	-0.00828925
2.30986	1.22069	27.715	0.0284435	-0.00859188
2.32607	1.22182	27.915	0.0288894	-0.00873646
2.34336	1.21793	28.115	0.0293629	-0.00892771
2.35933	1.2186	28.315	0.0297545	-0.00905486
2.37622	1.21956	28.515	0.0302731	-0.00919944
2.39258	1.21764	28.715	0.0307385	-0.00932649
2.40933	1.21626	28.915	0.0310837	-0.00946061
2.42598	1.21673	29.115	0.0314398	-0.00951183
2.44253	1.21504	29.315	0.0319193	-0.00953938
2.45913	1.21531	29.515	0.0323065	-0.0096572
2.47622	1.21184	29.715	0.0328489	-0.00980093
2.49248	1.21382	29.915	0.0334042	-0.0101077
2.50962	1.2106	30.115	0.0337213	-0.0102345
2.52539	1.2099	30.315	0.0339739	-0.0103131
2.54282	1.21093	30.515	0.034561	-0.0104468
2.55894	1.20735	30.715	0.034967	-0.0106121
2.57598	1.20825	30.915	0.0353936	-0.0110651
2.59238	1.20547	31.115	0.0359858	-0.011283
2.60918	1.20106	31.315	0.036372	-0.011405
2.62607	1.20484	31.515	0.0368525	-0.0116134
2.64287	1.20051	31.715	0.0371052	-0.0118152
2.65942	1.2006	31.915	0.0376912	-0.0117943
2.67622	1.20035	32.115	0.038151	-0.0119384
2.69243	1.19964	32.315	0.0388932	-0.0122115
2.70967	1.19566	32.515	0.0394695	-0.0124242
2.72563	1.19278	32.715	0.0395943	-0.0124971
2.74297	1.19671	32.915	0.0402956	-0.0128015
2.75903	1.19004	33.115	0.0405711	-0.0129646
2.77612	1.18888	33.315	0.0411851	-0.013235
2.79268	1.18942	33.515	0.0418234	-0.0134545
2.80938	1.18824	33.715	0.042309	-0.0134138
2.82617	1.18415	33.915	0.0428793	-0.0134948
2.84287	1.18635	34.115	0.043457	-0.0137636
2.85937	1.18556	34.315	0.043699	-0.0140485
2.87632	1.18039	34.515	0.0442445	-0.0141395
2.89248	1.17959	34.715	0.044606	-0.0143535
2.90967	1.18144	34.915	0.0451476	-0.0146528
2.92563	1.17737	35.115	0.0459122	-0.0150909
2.94302	1.17502	35.315	0.0463362	-0.0153777
2.95918	1.17498	35.515	0.0467983	-0.0156129
2.97622	1.17487	35.715	0.0472945	-0.0154309
2.99263	1.17226	35.915	0.0479703	-0.0156696
3.00937	1.16955	36.115	0.0482982	-0.0158248
3.02617	1.16956	36.315	0.0490053	-0.016149
3.04277	1.16903	36.515	0.0494844	-0.0163999
3.05923	1.16813	36.715	0.0499745	-0.0166693
3.07598	1.16557	36.915	0.0506381	-0.016975
3.09224	1.16454	37.115	0.0513126	-0.0171957
3.10972	1.16328	37.315	0.0517826	-0.0173109
3.12578	1.16358	37.515	0.0522416	-0.0177378
3.14312	1.16225	37.715	0.0527549	-0.0177016
3.15928	1.15843	37.915	0.0533818	-0.0180466
3.17642	1.15745	38.115	0.0538944	-0.0182476
3.19297	1.15559	38.315	0.0548006	-0.0184742
3.20967	1.15051	38.515	0.0552827	-0.0189108
3.22627	1.15115	38.715	0.055431	-0.019125
3.24277	1.14478	38.915	0.0561067	-0.0193185
3.25937	1.14554	39.115	0.0568609	-0.0195933
3.27632	1.14172	39.315	0.0574447	-0.0200341
3.29253	1.13543	39.515	0.0584407	-0.0203655
3.30977	1.12388	39.715	0.0590752	-0.0206397
3.31592	-0.0953843	39.793	0.0593945	-0.0216152