Folder: An-experimental-and-numerical-study-of-the-mechanical-response-of-3D-printed-semicrystalline-polymer/Raw_Data./Tensile Nozzle 0.4 mm/0 Degrees/LH0.1_0D_N0.4/Test Run 4 05-19-21 11 17 13 AM

File: DAQ- Crosshead, … - (Timed).csv
"File Path: G:\TT\3\Test Run 4 05-19-21 11 17 13 AM\DAQ- Crosshead, … - (Timed).csv   "
"Test: Robin_Tension_4_DIC_Signals 3"
"Test Run: Test Run 4"
"Date: 18/05/2021 13:57:23"
""
""
"Crosshead ","Load ","Time ","Strain 1 ","Strain 2 ","Strain 3 ","Strain 4 ","PoissonRatio "
"mm","kN","sec","mm/mm","mm/mm","mm/mm","mm/mm","%"
"0.000341797","-0.0182649","0.121","-0.000112224","-0.000128595","-0.000132476","1.48175e-05","114.588"
"0.0167969","-0.00755836","0.721","3.38135e-05","-6.92462e-06","5.64836e-05","-2.53924e-05","-20.4789"
"0.0394043","0.0195312","1.321","0.000334732","0.000263353","0.00036748","-0.000115777","78.6758"
"0.0607422","0.0426986","1.921","0.000514821","0.000500407","0.000593297","-0.000133356","97.2002"
"0.0816406","0.061909","2.521","0.000852279","0.000899668","0.000948381","-0.000142579","105.56"
"0.102002","0.0825489","3.121","0.00120235","0.00124531","0.00135637","-0.000263194","103.573"
"0.123291","0.100721","3.721","0.00133999","0.00144994","0.00153666","-0.000327901","108.205"
"0.142969","0.120899","4.321","0.00144022","0.00147737","0.00163769","-0.000398522","102.579"
"0.163574","0.143233","4.921","0.00172709","0.0017988","0.00197794","-0.000410112","104.152"
"0.183301","0.162182","5.521","0.00208551","0.00213749","0.00233702","-0.000481929","102.492"
"0.203516","0.17974","6.121","0.00227079","0.00243122","0.00256534","-0.000636726","107.065"
"0.223779","0.201408","6.721","0.00235604","0.00256537","0.0026717","-0.000663206","108.885"
"0.243359","0.220631","7.321","0.00253672","0.00267396","0.00289946","-0.000706195","105.41"
"0.263428","0.241445","7.921","0.00281483","0.00293963","0.00317894","-0.000738459","104.434"
"0.283447","0.259118","8.521","0.00306335","0.00324118","0.00346815","-0.000851954","105.805"
"0.30332","0.277426","9.121","0.00320239","0.00343396","0.00360734","-0.000919486","107.231"
"0.323877","0.297087","9.721","0.00335383","0.00358415","0.00382601","-0.000985527","106.867"
"0.343262","0.31577","10.321","0.00360686","0.00387667","0.00410539","-0.00100962","107.48"
"0.363525","0.336646","10.921","0.00381638","0.00401151","0.00429626","-0.00111678","105.113"
"0.383252","0.353564","11.521","0.00398866","0.00423164","0.0044906","-0.00117941","106.092"
"0.403564","0.371365","12.121","0.00419924","0.00447311","0.00476562","-0.00124815","106.522"
"0.423926","0.390215","12.721","0.00442613","0.00472622","0.00501733","-0.00132255","106.78"
"0.443506","0.405128","13.321","0.00458192","0.00493571","0.005193","-0.00135622","107.721"
"0.463672","0.422976","13.921","0.00467414","0.0050023","0.00529048","-0.00144716","107.021"
"0.483691","0.440543","14.521","0.00487896","0.00517113","0.00549173","-0.00150023","105.988"
"0.503467","0.457386","15.121","0.00519236","0.00556251","0.00584896","-0.0015831","107.129"
"0.524023","0.474157","15.721","0.00540393","0.00579657","0.00609922","-0.00160962","107.266"
"0.543359","0.488191","16.321","0.00549567","0.0059083","0.00619637","-0.00167239","107.508"
"0.563574","0.506433","16.921","0.00559641","0.00595818","0.00632116","-0.00175029","106.464"
"0.583203","0.520382","17.521","0.00587541","0.00622038","0.00659754","-0.00186279","105.871"
"0.603564","0.537024","18.121","0.00614881","0.00657286","0.00694842","-0.00188698","106.896"
"0.623975","0.552159","18.721","0.0062562","0.00676366","0.00708631","-0.00196236","108.111"
"0.643652","0.567624","19.321","0.00630661","0.0068188","0.0072026","-0.00201068","108.121"
"0.663721","0.582712","19.921","0.00651281","0.00700188","0.00744022","-0.00208181","107.509"
"0.683594","0.596418","20.521","0.00679236","0.00723698","0.00767214","-0.0021927","106.546"
"0.70332","0.61167","21.121","0.0070113","0.00752093","0.00792618","-0.00221052","107.269"
"0.723779","0.626415","21.721","0.00711673","0.00769304","0.00807172","-0.00229463","108.098"
"0.743213","0.638035","22.321","0.00719179","0.00780019","0.00829779","-0.00233593","108.46"
"0.763525","0.653822","22.921","0.00747523","0.00806934","0.00852866","-0.00247392","107.948"
"0.783301","0.663843","23.521","0.00767803","0.00827098","0.00871481","-0.00252056","107.723"
"0.803613","0.679219","24.121","0.00782724","0.00839296","0.00887632","-0.00249008","107.228"
"0.824121","0.69403","24.721","0.00803164","0.00865733","0.00911816","-0.00261506","107.79"
"0.843652","0.707477","25.321","0.00825138","0.00892932","0.00943779","-0.00272645","108.216"
"0.863574","0.720951","25.921","0.00836074","0.00909132","0.00954835","-0.00274045","108.738"
"0.883545","0.734715","26.521","0.00848669","0.00913865","0.00962466","-0.00280304","107.682"
"0.903369","0.747793","27.121","0.00870806","0.00932858","0.00983799","-0.00287963","107.126"
"0.923975","0.759122","27.721","0.00898854","0.00964559","0.0102019","-0.00293272","107.31"
"0.943066","0.77165","28.321","0.00908236","0.00992109","0.0104045","-0.00303293","109.235"
"0.963428","0.783756","28.921","0.00918693","0.0100241","0.0104916","-0.00306005","109.113"
"0.983252","0.798322","29.521","0.00931984","0.0100608","0.0106255","-0.0031114","107.95"
"1.00356","0.811636","30.121","0.00964033","0.0103323","0.0109514","-0.0032197","107.178"
"1.02388","0.822223","30.721","0.00990544","0.0106372","0.011216","-0.00324959","107.387"
"1.04341","0.831572","31.321","0.00997849","0.0108716","0.0113743","-0.00333524","108.95"
"1.06357","0.849588","31.921","0.0100069","0.0109188","0.0114681","-0.00335191","109.113"
"1.08354","0.857834","32.521","0.0102505","0.0110727","0.0117111","-0.00336448","108.021"
"1.10352","0.868022","33.121","0.0104285","0.0113501","0.0119795","-0.00347735","108.837"
"1.12407","0.884595","33.721","0.0106917","0.0115727","0.0121585","-0.00356982","108.24"
"1.14355","0.89364","34.321","0.0107251","0.0117011","0.0122559","-0.00371316","109.1"
"1.16401","0.903884","34.921","0.0109388","0.0119209","0.0125349","-0.00374204","108.978"
"1.18359","0.915833","35.521","0.0110585","0.01215","0.0127802","-0.00372454","109.87"
"1.20356","0.92959","36.121","0.0113129","0.012282","0.0128964","-0.00380177","108.566"
"1.22373","0.939467","36.721","0.011463","0.0124117","0.0131004","-0.00389178","108.276"
"1.24341","0.949833","37.321","0.0115577","0.0126806","0.0133826","-0.00396154","109.716"
"1.26357","0.959474","37.921","0.0117117","0.0129437","0.0135919","-0.0039726","110.519"
"1.2834","0.970496","38.521","0.0119441","0.0131007","0.0137283","-0.00406602","109.683"
"1.30337","0.980106","39.121","0.0121239","0.013133","0.0138092","-0.00413529","108.323"
"1.32412","0.996595","39.721","0.0122932","0.0133398","0.0141051","-0.0042017","108.514"
"1.34351","1.00443","40.321","0.0125032","0.0136454","0.0144433","-0.00423343","109.135"
"1.36362","1.01414","40.921","0.0126667","0.013945","0.0145905","-0.00427506","110.092"
"1.3833","1.02547","41.521","0.012734","0.0139411","0.0146056","-0.00437018","109.479"
"1.40356","1.03647","42.121","0.0129378","0.0140595","0.0148486","-0.00444343","108.67"
"1.42393","1.04274","42.721","0.0131767","0.0143023","0.0151152","-0.00450473","108.542"
"1.44351","1.05574","43.321","0.0134498","0.014568","0.0153091","-0.00453804","108.314"
"1.46353","1.06746","43.921","0.0135105","0.0147329","0.0154205","-0.00458074","109.048"
"1.48354","1.07392","44.521","0.0136","0.0148573","0.015616","-0.00465448","109.245"
"1.50347","1.08369","45.121","0.0137514","0.0149663","0.0158068","-0.00468829","108.835"
"1.52393","1.09098","45.721","0.0140803","0.0152614","0.016079","-0.00477381","108.388"
"1.54326","1.10346","46.321","0.0142862","0.0154852","0.0162463","-0.00477516","108.393"
"1.56353","1.11323","46.921","0.014303","0.0156125","0.0163861","-0.00485379","109.155"
"1.58325","1.12448","47.521","0.0143958","0.0157376","0.016615","-0.00493717","109.321"
"1.60347","1.13122","48.121","0.0147158","0.0160818","0.0168827","-0.00499795","109.283"
"1.62388","1.14249","48.721","0.0148621","0.0161304","0.0169012","-0.0050486","108.534"
"1.64355","1.15044","49.321","0.0150106","0.0163101","0.0171415","-0.00507932","108.657"
"1.66372","1.15828","49.921","0.0150884","0.0164664","0.0174107","-0.00518203","109.133"
"1.68364","1.16981","50.521","0.0153065","0.0167672","0.017566","-0.00522463","109.543"
"1.70347","1.17598","51.121","0.0155156","0.0168761","0.0177155","-0.00531628","108.769"
"1.72407","1.18535","51.721","0.0156305","0.0169362","0.0178079","-0.00538323","108.354"
"1.74336","1.19303","52.321","0.0157923","0.0171836","0.0181499","-0.00539464","108.81"
"1.76367","1.20029","52.921","0.0159912","0.0174954","0.0183543","-0.00549391","109.406"
"1.7834","1.20768","53.521","0.0160688","0.0176326","0.0184505","-0.00554667","109.732"
"1.80352","1.2168","54.121","0.0162896","0.0176708","0.0185797","-0.00561087","108.479"
"1.82388","1.22528","54.721","0.0163967","0.0177837","0.0187875","-0.00564579","108.459"
"1.84351","1.23125","55.321","0.0166778","0.0181088","0.0190995","-0.00568747","108.58"
"1.86362","1.23605","55.921","0.0168287","0.0183378","0.0192674","-0.00578658","108.967"
"1.88345","1.24008","56.521","0.0169426","0.0184745","0.0191668","-0.0057847","109.042"
"1.90332","1.24298","57.121","0.0170245","0.0185309","0.0191893","-0.00579623","108.848"
"1.92397","1.24318","57.721","0.0171486","0.0185503","0.0193708","-0.00579072","108.174"
"1.9252","0.0658819","57.756","0.0171486","0.0185503","0.0193708","-0.00579072","108.174"