Folder: An-experimental-and-numerical-study-of-the-mechanical-response-of-3D-printed-semicrystalline-polymer/Raw_Data./Tensile Nozzle 0.4 mm/0 Degrees/LH0.1_0D_N0.4/Test Run 1 05-19-21 11 17 13 AM

File: DAQ- Crosshead, … - (Timed).csv
"File Path: G:\TT\3\Test Run 1 05-19-21 11 17 13 AM\DAQ- Crosshead, … - (Timed).csv   "
"Test: Robin_Tension_4_DIC_Signals 3"
"Test Run: Test Run 1"
"Date: 18/05/2021 13:47:56"
""
""
"Crosshead ","Load ","Time ","Strain 1 ","Strain 2 ","Strain 3 ","Strain 4 ","PoissonRatio "
"mm","kN","sec","mm/mm","mm/mm","mm/mm","mm/mm","%"
"0.000341797","-0.00638673","0.113","6.14764e-06","4.8069e-05","1.87407e-05","3.09491e-05","781.91"
"0.0205566","0.0154201","0.813","1.62033e-05","1.80325e-05","-1.64488e-05","-3.73276e-05","111.289"
"0.0458008","0.0391586","1.513","4.47824e-05","7.08248e-05","1.28633e-05","-0.000146542","158.153"
"0.0710449","0.0630041","2.213","0.000117801","0.000133678","0.000100938","-0.00025293","113.478"
"0.0952637","0.086841","2.913","1.84765e-05","2.2929e-05","-6.30921e-06","-0.000468599","124.098"
"0.119824","0.110113","3.613","7.98412e-05","7.72721e-05","2.47715e-05","-0.000617549","96.7822"
"0.142969","0.132869","4.313","0.000142659","0.000171479","0.00010581","-0.000806718","120.202"
"0.166748","0.15667","5.013","0.000236105","0.000320593","0.000199145","-0.000898317","135.784"
"0.190967","0.179284","5.713","0.000684367","0.000765381","0.000781005","-0.000523444","111.838"
"0.21333","0.201175","6.413","0.000679902","0.000687456","0.000641732","-0.000879533","101.111"
"0.237207","0.222499","7.113","0.000639998","0.000676743","0.000639574","-0.00124727","105.741"
"0.260352","0.246229","7.813","0.000889848","0.000886665","0.000857886","-0.00119315","99.6423"
"0.283447","0.268361","8.513","0.0013081","0.00131228","0.00134544","-0.00103027","100.32"
"0.306982","0.290149","9.213","0.00113429","0.00117372","0.00119703","-0.00148424","103.476"
"0.330029","0.312686","9.913","0.00130594","0.00133662","0.00132203","-0.00152067","102.349"
"0.354004","0.331379","10.613","0.00158321","0.00154616","0.00151583","-0.00159481","97.6598"
"0.376367","0.356291","11.313","0.00180911","0.00181447","0.00184275","-0.00173259","100.296"
"0.400488","0.376161","12.013","0.0018043","0.0018297","0.00188631","-0.00177925","101.408"
"0.423877","0.394484","12.713","0.00193643","0.00195772","0.00196346","-0.00189788","101.099"
"0.446777","0.414094","13.413","0.00230268","0.00237624","0.00233429","-0.00199195","103.195"
"0.470605","0.434219","14.113","0.00247946","0.00253012","0.0025672","-0.0020479","102.043"
"0.494043","0.455849","14.813","0.00251046","0.00254922","0.00263126","-0.00212336","101.544"
"0.517236","0.473266","15.513","0.0027618","0.0027698","0.00280476","-0.00222778","100.29"
"0.53999","0.493883","16.213","0.00303951","0.0031307","0.00313095","-0.00230614","103"
"0.563574","0.510025","16.913","0.00321917","0.00332472","0.00336072","-0.00240237","103.279"
"0.587158","0.529041","17.613","0.0033506","0.00336922","0.00346094","-0.00246892","100.556"
"0.609961","0.544369","18.313","0.00356554","0.00357192","0.00369123","-0.00259512","100.179"
"0.634229","0.565469","19.013","0.00375959","0.00386959","0.00388752","-0.00266143","102.926"
"0.657178","0.57881","19.713","0.00397973","0.0040144","0.00409031","-0.00277673","100.871"
"0.680518","0.598389","20.413","0.00411537","0.00420263","0.00433004","-0.00277274","102.12"
"0.703271","0.614931","21.113","0.00430456","0.00441003","0.00455348","-0.00288956","102.45"
"0.727148","0.62984","21.813","0.00457339","0.00451526","0.00469321","-0.00305453","98.7289"
"0.750195","0.646634","22.513","0.0046318","0.00471117","0.00483683","-0.00325862","101.714"
"0.773389","0.659976","23.213","0.00482546","0.00488621","0.00495821","-0.00334438","101.259"
"0.797363","0.679475","23.913","0.00519529","0.00511104","0.00525113","-0.00340966","98.3783"
"0.820361","0.694246","24.613","0.00533534","0.00539223","0.00557396","-0.00340969","101.066"
"0.843652","0.708944","25.313","0.00543403","0.00549169","0.00567973","-0.00356335","101.061"
"0.867041","0.724072","26.013","0.00559053","0.00565675","0.00576497","-0.00370054","101.184"
"0.890478","0.740185","26.713","0.00593348","0.00595455","0.00613029","-0.0037026","100.355"
"0.913965","0.755549","27.413","0.00613099","0.00623649","0.00642688","-0.00373898","101.721"
"0.936279","0.763389","28.113","0.00622483","0.00631922","0.00657023","-0.00389631","101.516"
"0.960693","0.782288","28.813","0.00632292","0.00642626","0.00664586","-0.00396725","101.634"
"0.983252","0.795636","29.513","0.00670104","0.0067273","0.00694932","-0.004091","100.392"
"1.00693","0.812204","30.213","0.00697786","0.00703972","0.00724023","-0.0040446","100.887"
"1.03052","0.826889","30.913","0.00704971","0.00714432","0.00736947","-0.00417868","101.342"
"1.05352","0.839589","31.613","0.00723864","0.00730169","0.00757804","-0.00429327","100.871"
"1.07715","0.851109","32.313","0.00751027","0.00757864","0.00781554","-0.00439617","100.91"
"1.10005","0.865725","33.013","0.00775378","0.00780843","0.00806292","-0.00442936","100.705"
"1.12407","0.882117","33.713","0.00788476","0.00796081","0.00821782","-0.00455011","100.965"
"1.14717","0.893627","34.413","0.00812281","0.00814435","0.0085206","-0.0046365","100.265"
"1.17036","0.910664","35.113","0.00829794","0.00840129","0.00866832","-0.00471015","101.245"
"1.19458","0.924479","35.813","0.00851123","0.00856886","0.00882413","-0.00467239","100.677"
"1.21641","0.932597","36.513","0.00877184","0.00878116","0.00910241","-0.00480199","100.106"
"1.24058","0.945964","37.213","0.00895553","0.00903599","0.00936704","-0.00486998","100.898"
"1.26353","0.958245","37.913","0.0090368","0.00915525","0.00946485","-0.00497363","101.311"
"1.28691","0.973399","38.613","0.00926539","0.00929997","0.00962165","-0.00503073","100.373"
"1.31035","0.983994","39.313","0.00963181","0.00958005","0.00996074","-0.005104","99.4626"
"1.33354","0.994648","40.013","0.00980631","0.00985726","0.010261","-0.00520828","100.52"
"1.35776","1.004","40.713","0.00977219","0.00979779","0.0103551","-0.00515452","100.262"
"1.37979","1.01278","41.413","0.0100355","0.0100106","0.0106673","-0.00534252","99.7519"
"1.40356","1.02579","42.113","0.0102086","0.0103628","0.0108979","-0.00548535","101.51"
"1.42754","1.03753","42.813","0.0102531","0.0105478","0.0110737","-0.00557785","102.874"
"1.44995","1.04564","43.513","0.0103405","0.0105901","0.0111784","-0.0056643","102.414"
"1.47402","1.05747","44.213","0.0106415","0.0108493","0.0114134","-0.0057254","101.953"
"1.49673","1.07025","44.913","0.0108793","0.0111522","0.0116785","-0.00576667","102.508"
"1.52075","1.08053","45.613","0.0109672","0.0113143","0.011855","-0.00581743","103.165"
"1.54321","1.091","46.313","0.0110755","0.0113704","0.0120371","-0.00584873","102.663"
"1.5666","1.1031","47.013","0.0114092","0.0116249","0.0122599","-0.00589019","101.891"
"1.59077","1.11118","47.713","0.0115807","0.0118272","0.0124336","-0.00596413","102.129"
"1.61328","1.12059","48.413","0.0117411","0.0120037","0.0126571","-0.00603979","102.237"
"1.6373","1.13442","49.113","0.0119261","0.0121661","0.0129544","-0.0061007","102.012"
"1.66064","1.13759","49.813","0.0120783","0.0123511","0.0130568","-0.006148","102.259"
"1.68369","1.14738","50.513","0.0121786","0.0124905","0.0132244","-0.00630395","102.561"
"1.70708","1.1581","51.213","0.01241","0.0126845","0.0135529","-0.00639692","102.212"
"1.73022","1.16638","51.913","0.0124988","0.0128425","0.0138288","-0.0062901","102.75"
"1.7542","1.17692","52.613","0.0126275","0.0130142","0.0138763","-0.00649075","103.062"
"1.77651","1.18258","53.313","0.0128836","0.0132207","0.0140299","-0.00659227","102.617"
"1.80039","1.19239","54.013","0.0131312","0.0133617","0.0143607","-0.00668167","101.755"
"1.82378","1.20076","54.713","0.0131401","0.0136097","0.0145573","-0.00661691","103.574"
"1.84668","1.20763","55.413","0.0132581","0.013749","0.0147337","-0.00681137","103.703"
"1.87036","1.21589","56.113","0.0135009","0.0138204","0.0147235","-0.00691754","102.367"
"1.89375","1.21991","56.813","0.0137995","0.0140941","0.0150629","-0.00695364","102.135"
"1.91709","1.22978","57.513","0.0138081","0.014446","0.0153336","-0.00700966","104.62"
"1.93994","1.23572","58.213","0.013905","0.0144578","0.015423","-0.00710369","103.976"
"1.96362","1.24388","58.913","0.0141929","0.0145071","0.0155844","-0.00723088","102.214"
"1.98716","1.25203","59.613","0.0144351","0.0148326","0.0157871","-0.00726282","102.754"
"2.01006","1.25665","60.313","0.014489","0.0151422","0.0159304","-0.00719585","104.508"
"2.03423","1.26022","61.013","0.014717","0.0152289","0.0161229","-0.00742358","103.478"
"2.05698","1.26797","61.713","0.0149803","0.0153435","0.0163338","-0.00740063","102.425"
"2.08032","1.27143","62.413","0.0152381","0.0155889","0.0164588","-0.00746775","102.302"
"2.10322","1.27592","63.113","0.0153109","0.0158276","0.0165803","-0.00735309","103.375"
"2.12729","1.27886","63.813","0.015506","0.0159666","0.0168093","-0.00755962","102.97"
"2.15015","1.28249","64.513","0.0157292","0.016096","0.0170651","-0.00753736","102.332"
"2.17329","0.938907","65.213","NaN","0.0164792","0.0171467","NaN","NaN"
"2.19731","0.942819","65.913","NaN","0.0166257","0.01722","NaN","NaN"
"2.22007","0.948076","66.613","NaN","0.0168194","0.0175195","NaN","NaN"
"2.24331","0.950097","67.313","NaN","0.0170536","0.0178984","NaN","NaN"
"2.26699","0.952063","68.013","NaN","0.017185","0.0179448","NaN","NaN"
"2.29048","0.955528","68.713","NaN","0.0173091","0.0179783","NaN","NaN"
"2.31401","0.959424","69.413","NaN","0.0174354","0.0182067","NaN","NaN"
"2.33667","0.955992","70.113","NaN","0.0175946","0.0185234","NaN","NaN"
"2.36133","0.596628","70.813","NaN","NaN","0.0183966","NaN","NaN"
"2.3835","0.592911","71.513","NaN","NaN","0.0185393","NaN","NaN"
"2.40674","0.592583","72.213","NaN","NaN","0.0186537","NaN","NaN"
"2.43042","0.591727","72.913","NaN","NaN","0.0186664","NaN","NaN"
"2.43394","0.59128","73.013","NaN","NaN","0.0187193","NaN","NaN"
"2.43721","0.5916","73.113","NaN","NaN","0.0187325","NaN","NaN"
"2.44058","0.589666","73.213","NaN","NaN","0.0187724","NaN","NaN"
"2.44341","0.591549","73.313","NaN","NaN","0.0187162","NaN","NaN"
"2.44668","0.589366","73.413","NaN","NaN","0.018737","NaN","NaN"
"2.4499","0.590056","73.513","NaN","NaN","0.0187445","NaN","NaN"
"2.45361","0.591082","73.613","NaN","NaN","0.0187217","NaN","NaN"
"2.45698","0.589663","73.713","NaN","NaN","0.0187377","NaN","NaN"
"2.4605","0.590197","73.813","NaN","NaN","0.0188223","NaN","NaN"
"2.46362","0.591653","73.913","NaN","NaN","0.0188391","NaN","NaN"
"2.46714","0.590476","74.013","NaN","NaN","0.0188347","NaN","NaN"
"2.47056","0.588442","74.113","NaN","NaN","0.018851","NaN","NaN"
"2.47422","0.588003","74.213","NaN","NaN","0.01884","NaN","NaN"
"2.47725","0.585838","74.313","NaN","NaN","0.0188561","NaN","NaN"
"2.48066","0.588767","74.413","NaN","NaN","0.0188559","NaN","NaN"
"2.48369","0.588357","74.513","NaN","NaN","0.0188799","NaN","NaN"
"2.48721","0.586326","74.613","NaN","NaN","0.0188532","NaN","NaN"
"2.49058","0.586138","74.713","NaN","NaN","0.0188671","NaN","NaN"
"2.49399","0.589192","74.813","NaN","NaN","0.0189709","NaN","NaN"
"2.49683","0.587168","74.913","NaN","NaN","0.0189703","NaN","NaN"
"2.50015","0.586053","75.013","NaN","NaN","0.0189513","NaN","NaN"
"2.50352","0.586448","75.113","NaN","NaN","0.0189806","NaN","NaN"
"2.50718","0.585923","75.213","NaN","NaN","0.0189421","NaN","NaN"
"2.5105","0.585108","75.313","NaN","NaN","0.0189062","NaN","NaN"
"2.51421","0.585928","75.413","NaN","NaN","0.0188808","NaN","NaN"
"2.51743","0.583887","75.513","NaN","NaN","0.0189423","NaN","NaN"
"2.521","0.58487","75.613","NaN","NaN","0.0189477","NaN","NaN"
"2.52422","0.584549","75.713","NaN","NaN","0.01895","NaN","NaN"
"2.52754","0.581457","75.813","NaN","NaN","0.0189201","NaN","NaN"
"2.53042","0.584624","75.913","NaN","NaN","0.0189357","NaN","NaN"
"2.53364","0.581839","76.013","NaN","NaN","0.018922","NaN","NaN"
"2.53667","0.582837","76.113","NaN","NaN","0.0189258","NaN","NaN"
"2.54019","0.583047","76.213","NaN","NaN","0.0189496","NaN","NaN"
"2.54351","0.583432","76.313","NaN","NaN","0.0188969","NaN","NaN"
"2.54707","0.580053","76.413","NaN","NaN","0.0189295","NaN","NaN"
"2.55039","0.581483","76.513","NaN","NaN","0.0189277","NaN","NaN"
"2.55425","0.579382","76.613","NaN","NaN","0.0189128","NaN","NaN"
"2.55771","0.580194","76.713","NaN","NaN","0.0189086","NaN","NaN"
"2.56099","0.578081","76.813","NaN","NaN","0.0189493","NaN","NaN"
"2.56362","0.579787","76.913","NaN","NaN","0.0189271","NaN","NaN"
"2.5667","0.580046","77.013","NaN","NaN","0.018931","NaN","NaN"
"2.56992","0.578862","77.113","NaN","NaN","0.0189344","NaN","NaN"
"2.57344","0.579424","77.213","NaN","NaN","0.0188234","NaN","NaN"
"2.57642","0.579321","77.313","NaN","NaN","0.0188191","NaN","NaN"
"2.57979","0.578389","77.413","NaN","NaN","0.0188544","NaN","NaN"
"2.58315","0.58022","77.513","NaN","NaN","0.018866","NaN","NaN"
"2.58706","0.5762","77.613","NaN","NaN","0.01883","NaN","NaN"
"2.59077","0.575287","77.713","NaN","NaN","0.01884","NaN","NaN"
"2.59434","0.576182","77.813","NaN","NaN","0.0188204","NaN","NaN"
"2.59717","0.575235","77.913","NaN","NaN","0.0188543","NaN","NaN"
"2.60039","0.576389","78.013","NaN","NaN","0.0188317","NaN","NaN"
"2.60347","0.576485","78.113","NaN","NaN","0.018813","NaN","NaN"
"2.60684","0.573712","78.213","NaN","NaN","0.0187977","NaN","NaN"
"2.60986","0.575586","78.313","NaN","NaN","0.0187585","NaN","NaN"
"2.61323","0.577239","78.413","NaN","NaN","0.0187735","NaN","NaN"
"2.61641","0.573814","78.513","NaN","NaN","0.0187511","NaN","NaN"
"2.62017","0.571735","78.613","NaN","NaN","0.0187226","NaN","NaN"
"2.62383","0.570964","78.713","NaN","NaN","0.0187299","NaN","NaN"
"2.62744","0.572752","78.813","NaN","NaN","0.0187118","NaN","NaN"
"2.63047","0.571569","78.913","NaN","NaN","0.0186939","NaN","NaN"
"2.63408","0.57232","79.013","NaN","NaN","0.0186398","NaN","NaN"
"2.6373","0.571624","79.113","NaN","NaN","0.0186489","NaN","NaN"
"2.64058","0.568658","79.213","NaN","NaN","0.0186236","NaN","NaN"
"2.64341","0.565493","79.313","NaN","NaN","0.0185887","NaN","NaN"
"2.64668","0.564031","79.413","NaN","NaN","0.0185894","NaN","NaN"
"2.65","0.562382","79.513","NaN","NaN","0.0182319","NaN","NaN"
"2.65371","0.559643","79.613","NaN","NaN","0.018166","NaN","NaN"
"2.65703","0.558228","79.713","NaN","NaN","0.0180884","NaN","NaN"
"2.6605","0.556548","79.813","NaN","NaN","0.0180703","NaN","NaN"
"2.66367","0.545552","79.913","NaN","NaN","0.0180472","NaN","NaN"
"2.66724","0.540655","80.013","NaN","NaN","0.0178963","NaN","NaN"
"2.67061","0.534734","80.113","NaN","NaN","0.0178016","NaN","NaN"
"2.67422","0.527631","80.213","NaN","NaN","0.017193","NaN","NaN"
"2.67734","0.479153","80.313","NaN","NaN","0.0170348","NaN","NaN"
"2.68071","0.470623","80.413","NaN","NaN","0.0169148","NaN","NaN"
"2.68379","0.183196","80.513","NaN","NaN","0.0181258","NaN","NaN"
"2.6874","0.199808","80.613","NaN","NaN","0.0177446","NaN","NaN"
"2.69082","0.199749","80.713","NaN","NaN","NaN","NaN","NaN"
"2.69429","0.19457","80.813","NaN","NaN","NaN","NaN","NaN"
"2.69712","0.194301","80.913","NaN","NaN","NaN","NaN","NaN"
"2.70049","0.195144","81.013","NaN","NaN","NaN","NaN","NaN"
"2.70376","0.193389","81.113","NaN","NaN","NaN","NaN","NaN"
"2.70742","0.195944","81.213","NaN","NaN","NaN","NaN","NaN"
"2.71074","0.195884","81.313","NaN","NaN","NaN","NaN","NaN"
"2.7144","0.194342","81.413","NaN","NaN","NaN","NaN","NaN"
"2.71758","0.195048","81.513","NaN","NaN","NaN","NaN","NaN"
"2.72109","0.196634","81.613","NaN","NaN","NaN","NaN","NaN"
"2.72422","0.194178","81.713","NaN","NaN","NaN","NaN","NaN"
"2.72754","0.196403","81.813","NaN","NaN","NaN","NaN","NaN"
"2.73032","0.193603","81.913","NaN","NaN","NaN","NaN","NaN"
"2.73354","0.194128","82.013","NaN","NaN","NaN","NaN","NaN"
"2.73657","0.19288","82.113","NaN","NaN","NaN","NaN","NaN"
"2.74004","0.195206","82.213","NaN","NaN","NaN","NaN","NaN"
"2.74341","0.19507","82.313","NaN","NaN","NaN","NaN","NaN"
"2.74697","0.192319","82.413","NaN","NaN","NaN","NaN","NaN"
"2.75024","0.196298","82.513","NaN","NaN","NaN","NaN","NaN"
"2.75415","0.194585","82.613","NaN","NaN","NaN","NaN","NaN"
"2.75767","0.194117","82.713","NaN","NaN","NaN","NaN","NaN"
"2.76094","0.194419","82.813","NaN","NaN","NaN","NaN","NaN"
"2.76357","0.19237","82.913","NaN","NaN","NaN","NaN","NaN"
"2.7667","0.195634","83.013","NaN","NaN","NaN","NaN","NaN"
"2.76987","0.194614","83.113","NaN","NaN","NaN","NaN","NaN"
"2.77339","0.193547","83.213","NaN","NaN","NaN","NaN","NaN"
"2.77642","0.197206","83.313","NaN","NaN","NaN","NaN","NaN"
"2.77979","0.194123","83.413","NaN","NaN","NaN","NaN","NaN"
"2.7832","0.194161","83.513","NaN","NaN","NaN","NaN","NaN"
"2.78706","0.193683","83.613","NaN","NaN","NaN","NaN","NaN"
"2.79077","0.194321","83.713","NaN","NaN","NaN","NaN","NaN"
"2.79438","0.196732","83.813","NaN","NaN","NaN","NaN","NaN"
"2.79722","0.195741","83.913","NaN","NaN","NaN","NaN","NaN"
"2.80044","0.195759","84.013","NaN","NaN","NaN","NaN","NaN"
"2.80347","0.1947","84.113","NaN","NaN","NaN","NaN","NaN"
"2.80688","0.195714","84.213","NaN","NaN","NaN","NaN","NaN"
"2.80996","0.197021","84.313","NaN","NaN","NaN","NaN","NaN"
"2.81333","0.194083","84.413","NaN","NaN","NaN","NaN","NaN"
"2.81645","0.195721","84.513","NaN","NaN","NaN","NaN","NaN"
"2.82017","0.195223","84.613","NaN","NaN","NaN","NaN","NaN"
"2.82383","0.194463","84.713","NaN","NaN","NaN","NaN","NaN"
"2.82744","0.195182","84.813","NaN","NaN","NaN","NaN","NaN"
"2.83047","0.192783","84.913","NaN","NaN","NaN","NaN","NaN"
"2.83398","0.193435","85.013","NaN","NaN","NaN","NaN","NaN"
"2.83726","0.195675","85.113","NaN","NaN","NaN","NaN","NaN"
"2.84062","0.192881","85.213","NaN","NaN","NaN","NaN","NaN"
"2.84346","0.194346","85.313","NaN","NaN","NaN","NaN","NaN"
"2.84673","0.19428","85.413","NaN","NaN","NaN","NaN","NaN"
"2.85","0.195997","85.513","NaN","NaN","NaN","NaN","NaN"
"2.85371","0.194276","85.613","NaN","NaN","NaN","NaN","NaN"
"2.85708","0.196098","85.713","NaN","NaN","NaN","NaN","NaN"
"2.8606","0.195768","85.813","NaN","NaN","NaN","NaN","NaN"
"2.86367","0.194334","85.913","NaN","NaN","NaN","NaN","NaN"
"2.86714","0.195714","86.013","NaN","NaN","NaN","NaN","NaN"
"2.87051","0.195904","86.113","NaN","NaN","NaN","NaN","NaN"
"2.87417","0.196887","86.213","NaN","NaN","NaN","NaN","NaN"
"2.87725","0.19531","86.313","NaN","NaN","NaN","NaN","NaN"
"2.88057","0.195979","86.413","NaN","NaN","NaN","NaN","NaN"
"2.88359","0.194998","86.513","NaN","NaN","NaN","NaN","NaN"
"2.88711","0.194166","86.613","NaN","NaN","NaN","NaN","NaN"
"2.89058","0.192088","86.713","NaN","NaN","NaN","NaN","NaN"
"2.89399","0.194136","86.813","NaN","NaN","NaN","NaN","NaN"
"2.89678","0.19471","86.913","NaN","NaN","NaN","NaN","NaN"
"2.90005","0.195814","87.013","NaN","NaN","NaN","NaN","NaN"
"2.90342","0.193819","87.113","NaN","NaN","NaN","NaN","NaN"
"2.90708","0.195736","87.213","NaN","NaN","NaN","NaN","NaN"
"2.9103","0.1946","87.313","NaN","NaN","NaN","NaN","NaN"
"2.91392","0.195616","87.413","NaN","NaN","NaN","NaN","NaN"
"2.91714","0.193395","87.513","NaN","NaN","NaN","NaN","NaN"
"2.9207","0.193011","87.613","NaN","NaN","NaN","NaN","NaN"
"2.92388","0.197356","87.713","NaN","NaN","NaN","NaN","NaN"
"2.9272","0.19691","87.813","NaN","NaN","NaN","NaN","NaN"
"2.93008","0.193348","87.913","NaN","NaN","NaN","NaN","NaN"
"2.93335","0.192945","88.013","NaN","NaN","NaN","NaN","NaN"
"2.93643","0.195307","88.113","NaN","NaN","NaN","NaN","NaN"
"2.93994","0.195836","88.213","NaN","NaN","NaN","NaN","NaN"
"2.94331","0.196487","88.313","NaN","NaN","NaN","NaN","NaN"
"2.94692","0.195273","88.413","NaN","NaN","NaN","NaN","NaN"
"2.95029","0.197519","88.513","NaN","NaN","NaN","NaN","NaN"
"2.9542","0.194549","88.613","NaN","NaN","NaN","NaN","NaN"
"2.95767","0.195925","88.713","NaN","NaN","NaN","NaN","NaN"
"2.96094","0.196927","88.813","NaN","NaN","NaN","NaN","NaN"
"2.96362","0.193389","88.913","NaN","NaN","NaN","NaN","NaN"
"2.9668","0.195493","89.013","NaN","NaN","NaN","NaN","NaN"
"2.96997","0.195406","89.113","NaN","NaN","NaN","NaN","NaN"
"2.97349","0.194326","89.213","NaN","NaN","NaN","NaN","NaN"
"2.97651","0.19713","89.313","NaN","NaN","NaN","NaN","NaN"
"2.98003","0.195566","89.413","NaN","NaN","NaN","NaN","NaN"
"2.98345","0.196804","89.513","NaN","NaN","NaN","NaN","NaN"
"2.98735","0.192907","89.613","NaN","NaN","NaN","NaN","NaN"
"2.99106","0.194494","89.713","NaN","NaN","NaN","NaN","NaN"
"2.99468","0.194197","89.813","NaN","NaN","NaN","NaN","NaN"