Folder: An-experimental-and-numerical-study-of-the-mechanical-response-of-3D-printed-semicrystalline-polymer/Raw_Data./Tensile Nozzle 0.4 mm/45 Degrees/LH0.05_45D_N0.4/3/Test Run 1 02-21-20 12 15 43 PM

File: DAQ- Crosshead, … - (Timed).txt
File Path: C:\Users\MTS 300\Desktop\robin\eprouvette 45 lh005\test 3\Test Run 1 02-21-20 12 15 43 PM\DAQ- Crosshead, … - (Timed).txt
Test: Tensile test LEI 11
Test Run: Test Run 1
Date: 21/02/2020 12:13:41

Crosshead 	Load 	Time 	Strain 1 	Strain 2
mm	kN	sec	mm/mm	mm/mm
0.00375977	-0.000505781	0.114	-1.1756e-05	1.36296e-05
0.0174316	0.0109669	0.314	4.37841e-05	-5.20975e-05
0.0334961	0.027131	0.514	0.000202302	-0.000111831
0.0515625	0.046331	0.714	0.000336802	-0.000192506
0.0689453	0.0637854	0.914	0.000478838	-0.000233388
0.0869141	0.0816317	1.114	0.000663961	-0.000278605
0.104297	0.101028	1.314	0.000775826	-0.000289315
0.121826	0.11815	1.514	0.000981333	-0.000346064
0.138916	0.130973	1.714	0.00111715	-0.000361055
0.156152	0.151015	1.914	0.00127662	-0.000418389
0.173486	0.166766	2.114	0.00146112	-0.000519416
0.190674	0.183171	2.314	0.00157154	-0.000509833
0.207617	0.199168	2.514	0.00172435	-0.000550272
0.224707	0.217031	2.714	0.00181554	-0.000733884
0.241406	0.229395	2.914	0.00204962	-0.000733717
0.25874	0.24815	3.114	0.0021669	-0.000776666
0.274951	0.263714	3.314	0.00240056	-0.000816271
0.292187	0.279443	3.514	0.00256789	-0.000839954
0.308252	0.293314	3.714	0.00273485	-0.000900391
0.325342	0.308448	3.914	0.00291523	-0.000938006
0.341895	0.321427	4.114	0.00301631	-0.000917433
0.358789	0.333706	4.314	0.0031365	-0.00103314
0.375781	0.351849	4.514	0.00331372	-0.00104539
0.392334	0.36577	4.714	0.00351891	-0.00115439
0.409229	0.382062	4.914	0.00363306	-0.00119833
0.425977	0.39357	5.114	0.00378204	-0.00130897
0.442334	0.407837	5.314	0.00397477	-0.00130456
0.459277	0.425439	5.514	0.00408397	-0.00138725
0.475537	0.436654	5.714	0.00425313	-0.00137868
0.492871	0.45055	5.914	0.00439806	-0.00142234
0.509082	0.459697	6.114	0.00455773	-0.0014323
0.526123	0.474675	6.314	0.00477032	-0.00153169
0.542627	0.487976	6.514	0.00497398	-0.00158119
0.559473	0.498548	6.714	0.00507009	-0.00159102
0.576367	0.510544	6.914	0.00522767	-0.00171225
0.592725	0.523162	7.114	0.00541129	-0.00182333
0.609375	0.535729	7.314	0.00557764	-0.00190409
0.625879	0.548441	7.514	0.00572696	-0.0019069
0.642334	0.561078	7.714	0.00588005	-0.00193377
0.659424	0.572576	7.914	0.00600215	-0.00192107
0.675586	0.585149	8.114	0.00612092	-0.00196024
0.692773	0.597599	8.314	0.00626803	-0.00197403
0.708887	0.607053	8.514	0.00647744	-0.0020953
0.726025	0.61849	8.714	0.00664066	-0.00215857
0.742578	0.629077	8.914	0.0068469	-0.0022305
0.759229	0.644687	9.114	0.00701289	-0.00229069
0.775977	0.654453	9.314	0.00717957	-0.00240012
0.792383	0.663779	9.514	0.00733362	-0.00241579
0.80918	0.674136	9.714	0.00747117	-0.00243794
0.825977	0.688652	9.914	0.00766124	-0.00247773
0.842383	0.698828	10.114	0.00781132	-0.00250522
0.859424	0.707542	10.314	0.00803567	-0.00254111
0.875732	0.718301	10.514	0.00815675	-0.00255747
0.893066	0.730724	10.714	0.00831266	-0.00262231
0.909277	0.740513	10.914	0.00839096	-0.00266705
0.926221	0.750016	11.114	0.00859134	-0.00277271
0.94248	0.759366	11.314	0.00869848	-0.00282615
0.95918	0.771524	11.514	0.00887673	-0.00292182
0.976025	0.781225	11.714	0.00910064	-0.00294982
0.99248	0.790111	11.914	0.0092689	-0.00302241
1.00928	0.803675	12.114	0.00945676	-0.00300198
1.02583	0.812972	12.314	0.00958404	-0.00308324
1.04243	0.822709	12.514	0.00979491	-0.00306258
1.05972	0.834699	12.714	0.00992402	-0.00309667
1.07603	0.841966	12.914	0.0101	-0.00318413
1.09316	0.851854	13.114	0.0102465	-0.00324689
1.10923	0.862919	13.314	0.0104327	-0.00328245
1.12612	0.870911	13.514	0.0106038	-0.00340206
1.14253	0.880907	13.714	0.0106876	-0.00344569
1.15913	0.891879	13.914	0.010908	-0.0034786
1.17583	0.899483	14.114	0.0110542	-0.00347797
1.19219	0.909103	14.314	0.0112453	-0.00358381
1.20913	0.917175	14.514	0.0114031	-0.00355123
1.22593	0.926726	14.714	0.0115691	-0.00359206
1.24238	0.936308	14.914	0.0116771	-0.00363602
1.25928	0.945902	15.114	0.0118436	-0.00368675
1.27534	0.95499	15.314	0.0120191	-0.00371063
1.29268	0.960637	15.514	0.0122437	-0.00379702
1.30884	0.970548	15.714	0.01243	-0.00375962
1.32578	0.977215	15.914	0.0125997	-0.00399482
1.34219	0.987035	16.114	0.012806	-0.00399337
1.35894	0.993747	16.314	0.0128509	-0.00407591
1.37593	1.00369	16.514	0.0130163	-0.00406501
1.39253	1.01177	16.714	0.0131403	-0.00410707
1.40937	1.01941	16.914	0.0133254	-0.00417133
1.42598	1.026	17.114	0.0134968	-0.00418886
1.44238	1.03516	17.314	0.0137268	-0.00427585
1.45933	1.04027	17.514	0.0138726	-0.00434991
1.47549	1.04961	17.714	0.0140706	-0.00433369
1.49272	1.05765	17.914	0.0142189	-0.00442764
1.50889	1.06393	18.114	0.0144339	-0.00450725
1.52593	1.06989	18.314	0.0146299	-0.00459449
1.54248	1.07921	18.514	0.0147845	-0.00464228
1.55918	1.08577	18.714	0.0150094	-0.00459422
1.57607	1.09518	18.914	0.0151996	-0.00465503
1.59258	1.0982	19.114	0.0153908	-0.00465264
1.60938	1.10541	19.314	0.0155394	-0.00468531
1.62607	1.11211	19.514	0.0156876	-0.00479308
1.64248	1.11714	19.714	0.0158884	-0.00485751
1.65938	1.12215	19.914	0.016065	-0.00497131
1.67554	1.12566	20.114	0.0162074	-0.00502996
1.69282	1.1353	20.314	0.0164494	-0.0050852
1.70903	1.13916	20.514	0.0165921	-0.00507808
1.72607	1.14345	20.714	0.0168621	-0.00511946
1.74248	1.15098	20.914	0.0171276	-0.00516198
1.75918	1.15419	21.114	0.0173217	-0.00521683
1.77607	1.16058	21.314	0.0175916	-0.0052565
1.79243	1.16272	21.514	0.0177487	-0.00535562
1.80918	1.16638	21.714	0.0179929	-0.00542763
1.82568	1.16951	21.914	0.0181231	-0.00545375
1.84224	1.17327	22.114	0.0184112	-0.0055739
1.85942	1.1747	22.314	0.0185957	-0.00559513
1.87568	1.17728	22.514	0.0188201	-0.00565091
1.89292	1.18313	22.714	0.0189904	-0.00562389
1.90918	1.1878	22.914	0.0192895	-0.00567561
1.92632	1.18946	23.114	0.019536	-0.00574663
1.94292	1.19337	23.314	0.019656	-0.00575576
1.95957	1.19716	23.514	0.0199652	-0.00580837
1.97622	1.19604	23.714	0.020292	-0.00589177
1.99258	1.20074	23.914	0.0205697	-0.00595089
2.00947	1.20153	24.114	0.0207811	-0.00602566
2.02617	1.20287	24.314	0.0211149	-0.0060631
2.04258	1.20503	24.514	0.0212907	-0.00605147
2.05947	1.20623	24.714	0.0214998	-0.00605965
2.07568	1.20732	24.914	0.0217379	-0.00609771
2.09316	1.21089	25.114	0.0220681	-0.0061696
2.10938	1.21082	25.314	0.0223637	-0.00626268
2.12622	1.21235	25.514	0.0225582	-0.00636421
2.14253	1.21282	25.714	0.0228913	-0.00643487
2.15908	1.21364	25.914	0.0230923	-0.00647818
2.17598	1.2133	26.114	0.0233101	-0.00647942
2.19248	1.21615	26.314	0.0235763	-0.00643058
2.20923	1.21561	26.514	0.0239533	-0.0065135
2.22578	1.21638	26.714	0.0242051	-0.00657791
2.24238	1.21572	26.914	0.0245306	-0.00666325
2.25952	1.21632	27.114	0.0248469	-0.00678656
2.27573	1.21617	27.314	0.0251421	-0.00680737
2.29292	1.21436	27.514	0.0253148	-0.00683105
2.30903	1.21546	27.714	0.0256701	-0.00689844
2.32603	1.21829	27.914	0.026018	-0.00686252
2.34258	1.21339	28.114	0.0262477	-0.00693837
2.35928	1.21464	28.314	0.0266334	-0.00698494
2.37607	1.21232	28.514	0.0268246	-0.00706311
2.39243	1.21529	28.714	0.0271625	-0.00718203
2.40938	1.2097	28.914	0.0273596	-0.0072684
2.42622	1.21085	29.114	0.0278033	-0.00732539
2.44263	1.21338	29.314	0.0281026	-0.00738769
2.45942	1.21074	29.514	0.0283859	-0.00745369
2.47554	1.20405	29.714	0.0288453	-0.00752213
2.49282	1.20756	29.914	0.0291088	-0.00766009
2.50898	1.20608	30.114	0.0295223	-0.00771997
2.52598	1.20254	30.314	0.0297254	-0.00776988
2.54233	1.20213	30.514	0.0301486	-0.0078289
2.55908	1.19968	30.714	0.0303935	-0.00786325
2.57612	1.19773	30.914	0.030789	-0.00799561
2.59268	1.19688	31.114	0.0310367	-0.00796629
2.60962	1.19497	31.314	0.0314595	-0.00819334
2.62617	1.19326	31.514	0.0319565	-0.00820046
2.64268	1.18975	31.714	0.0321292	-0.00827157
2.65967	1.18688	31.914	0.0324458	-0.00830806
2.67573	1.18382	32.114	0.0328519	-0.00841801
2.69287	1.17942	32.314	0.0333028	-0.00844389
2.70908	1.1705	32.514	0.0338227	-0.00850902
2.71387	-0.126542	32.573	0.0338769	-0.00855782