Folder: An-experimental-and-numerical-study-of-the-mechanical-response-of-3D-printed-semicrystalline-polymer/Raw_Data./DSC/Crystallisation samples/Nozzle 1 mm/0 Degrees/LH005_0D_N1

File: Test 1.csv
Temperature,Heat Flow
30.07,8.6987
30.48,9.6002
31.13,9.8027
31.78,10.7328
32.42,11.2526
33.08,11.4933
33.73,11.6026
34.37,11.6577
35.02,11.6895
35.66,11.7173
36.32,11.7349
36.97,11.7497
37.61,11.7696
38.26,11.7884
38.91,11.8094
39.56,11.8011
40.21,11.8419
40.86,11.8685
41.5,11.8877
42.15,11.8971
42.8,11.9106
43.45,11.9193
44.1,11.9255
44.75,11.9373
45.4,11.9411
46.05,11.9451
46.7,11.9467
47.34,11.9532
48,11.9648
48.64,12.002
49.3,11.9971
49.94,12.0099
50.59,12.082
51.24,12.0587
51.89,12.0546
52.54,12.0527
53.18,12.0695
53.84,12.1073
54.48,12.1492
55.14,12.167
55.78,12.2019
56.43,12.28
57.08,12.4278
57.73,12.5053
58.38,12.6317
59.03,12.8566
59.68,13.1244
60.33,13.2894
60.98,13.3346
61.63,13.1602
62.28,13.0098
62.93,12.9256
63.58,12.9227
64.22,12.8976
64.88,12.8452
65.53,12.8452
66.18,12.9016
66.83,12.921
67.48,12.8033
68.13,12.7417
68.78,12.7175
69.42,12.6613
70.08,12.6131
70.73,12.6333
71.38,12.6838
72.03,12.7455
72.68,12.7891
73.33,12.8084
73.98,12.8023
74.63,12.7987
75.28,12.7892
75.93,12.7936
76.58,12.7921
77.23,12.7834
77.88,12.8267
78.53,13.0105
79.17,12.888
79.83,12.7966
80.48,12.7391
81.12,12.7362
81.77,12.7182
82.42,12.7194
83.07,12.7137
83.71,12.6879
84.36,12.6861
85.01,12.5661
85.66,12.5391
86.31,12.5867
86.96,12.5474
87.6,12.4886
88.25,12.4313
88.89,12.3919
89.55,12.3812
90.2,12.3788
90.84,12.5056
91.5,12.5215
92.14,12.4278
92.79,12.3512
93.45,12.3388
94.09,12.2873
94.75,12.1666
95.39,12.0217
96.04,11.8995
96.69,11.805
97.34,11.7222
97.99,11.6404
98.64,11.5681
99.28,11.5042
99.93,11.441
100.58,11.3928
101.23,11.3449
101.88,11.3149
102.53,11.2661
103.18,11.2343
103.83,11.2135
104.48,11.2043
105.12,11.2068
105.77,11.2278
106.42,11.2543
107.07,11.2954
107.71,11.3433
108.36,11.4006
109.01,11.4644
109.66,11.5317
110.31,11.6087
110.96,11.6811
111.61,11.7554
112.23,11.8303
112.91,11.9021
113.55,11.972
114.21,12.0403
114.85,12.1004
115.5,12.1612
116.15,12.2205
116.8,12.2747
117.45,12.3272
118.1,12.3719
118.75,12.4136
119.4,12.453
120.05,12.4882
120.7,12.5222
121.35,12.5586
122,12.5945
122.65,12.6435
123.3,12.7062
123.94,12.7428
124.59,12.7735
125.24,12.798
125.9,12.8134
126.54,12.8356
127.19,12.8582
127.84,12.8768
128.49,12.8919
129.14,12.9128
129.79,12.928
130.44,12.9372
131.09,12.9758
131.74,12.9993
132.39,13.0228
133.04,13.0419
133.69,13.064
134.34,13.0828
134.99,13.1055
135.64,13.1333
136.28,13.1627
136.93,13.1916
137.58,13.2209
138.24,13.2486
138.89,13.2851
139.54,13.3306
140.19,13.3759
140.84,13.4221
141.49,13.474
142.14,13.5334
142.79,13.6021
143.43,13.6824
144.08,13.7721
144.73,13.9442
145.38,14.082
146.03,14.2625
146.68,14.4676
147.33,14.7201
147.97,15.0093
148.62,15.299
149.27,15.5291
149.92,15.7001
150.56,15.7777
151.21,15.7527
151.86,15.744
152.5,15.8625
153.16,15.9753
153.8,16.039
154.45,16.0418
155.1,15.9291
155.75,15.6188
156.4,15.0997
157.05,14.4513
157.7,13.8421
158.35,13.4423
159,13.2367
159.65,13.105
160.3,13.0472
160.95,13.0252
161.6,13.0174
162.25,13.0168
162.9,13.0255
163.55,13.0181
164.2,13.0236
164.85,13.0239
165.5,13.0271
166.15,13.0303
166.8,13.0284
167.45,13.0269
168.1,13.0206
168.75,13.0218
169.39,13.026
170.04,13.0253
170.69,13.0303
171.34,13.0325
171.99,13.0351
172.63,13.0378
173.28,13.0402
173.93,13.0439
174.58,13.0467
175.23,13.0487
175.88,13.0538
176.53,13.0564
177.18,13.0598
177.83,13.0596
178.47,13.0644
179.12,13.0667
179.77,13.0664
180.42,13.0684
181.07,13.0627
181.72,13.0653
182.36,13.073
183.01,13.0947
183.66,13.1019
184.31,13.099
184.96,13.0884
185.61,13.0811
186.26,13.0826
186.91,13.082
187.56,13.0837
188.21,13.0893
188.86,13.0898
189.51,13.0944
190.16,13.0957
190.8,13.1026
191.45,13.1011
192.1,13.1055
192.75,13.1234
193.4,13.1273
194.05,13.1306
194.7,13.1459
195.35,13.1508
196,13.1551
196.65,13.1772
197.3,13.1803
197.95,13.1836
198.6,13.1863
199.25,13.1881
199.9,13.1865
200.55,13.1819
201.2,13.1862
201.85,13.1855
202.5,13.1856
203.15,13.1823
203.8,13.1851
204.45,13.206
205.1,13.2201
205.75,13.2058
206.4,13.2006
207.05,13.1994
207.69,13.1959
208.34,13.1932
208.99,13.1967
209.64,13.1961
210.28,13.2037
210.93,13.2117
211.58,13.2098
212.22,13.1705
212.88,13.183
213.53,13.2264
214.18,13.235
214.83,13.2395
215.47,13.2346
216.12,13.2366
216.77,13.2413
217.42,13.2415
218.06,13.2507
218.71,13.2483
219.36,13.2454
219.85,13.2699