Folder: An-experimental-and-numerical-study-of-the-mechanical-response-of-3D-printed-semicrystalline-polymer/Raw_Data./Tensile Nozzle 0.4 mm/90 Degrees/LH0.1_90D_N0.4/Test Run 5 05-19-21 11 10 37 AM

File: DAQ- Crosshead, … - (Timed).csv
"File Path: G:\TT\9\Test Run 5 05-19-21 11 10 37 AM\DAQ- Crosshead, … - (Timed).csv   "
"Test: Robin_Tension_4_DIC_Signals 9"
"Test Run: Test Run 5"
"Date: 18/05/2021 15:30:57"
""
""
"Crosshead ","Load ","Time ","Strain 1 ","Strain 2 ","Strain 3 ","Strain 4 ","PoissonRatio "
"mm","kN","sec","mm/mm","mm/mm","mm/mm","mm/mm","%"
"0.000878906","-0.0303373","0.113","1.48267e-05","7.08934e-05","1.47767e-05","-2.555e-06","478.147"
"0.0078125","-0.0210411","0.413","9.70615e-06","2.40336e-05","1.33554e-05","8.71713e-06","247.612"
"0.0175293","-0.00933045","0.713","9.18064e-05","-5.26389e-05","7.81465e-05","6.91176e-05","-57.3369"
"0.0285156","0.00323461","1.013","0.000185513","-0.000110833","0.000182358","0.000176287","-59.7441"
"0.0394531","0.0173431","1.313","0.000314673","-0.000125256","0.000319086","0.000321078","-39.8051"
"0.0497559","0.0313329","1.613","0.000406235","-0.00020901","0.00038501","0.000378112","-51.4505"
"0.0604492","0.0433925","1.913","0.000485771","-0.000191816","0.000442887","0.00047505","-39.4869"
"0.0709473","0.0565327","2.213","0.000558008","-0.000152166","0.000542633","0.000540702","-27.2695"
"0.0817871","0.0698923","2.513","0.00065262","-0.000198203","0.000616935","0.000607638","-30.3704"
"0.0916016","0.0820602","2.813","0.000788117","-0.00020152","0.000744322","0.000724396","-25.5698"
"0.1021","0.0951259","3.113","0.000879382","-0.000271196","0.000838887","0.000835016","-30.8394"
"0.112256","0.107339","3.413","0.000982782","-0.000333096","0.000949332","0.000934586","-33.8932"
"0.1229","0.119242","3.713","0.00107419","-0.000349481","0.00103332","0.00102021","-32.5344"
"0.13335","0.132109","4.013","0.00114375","-0.000404455","0.00108764","0.00110465","-35.3622"
"0.142725","0.14164","4.313","0.00121146","-0.000468814","0.00116961","0.0011584","-38.6983"
"0.153174","0.152167","4.613","0.00128211","-0.000529057","0.00123745","0.00122888","-41.2646"
"0.164111","0.166098","4.913","0.00139629","-0.000577477","0.00129647","0.00128649","-41.358"
"0.17334","0.177393","5.213","0.00152733","-0.00060511","0.00144234","0.0014586","-39.6188"
"0.183105","0.187792","5.513","0.00160898","-0.000560006","0.00155753","0.00153819","-34.805"
"0.19375","0.202534","5.813","0.00170321","-0.000561793","0.0016481","0.001633","-32.9844"
"0.204004","0.213737","6.113","0.00182183","-0.000575083","0.00174519","0.00174584","-31.5662"
"0.213574","0.223267","6.413","0.00184814","-0.000635244","0.00179461","0.00178745","-34.3721"
"0.223145","0.233771","6.713","0.00193876","-0.000681268","0.00188393","0.00187736","-35.1394"
"0.234131","0.240173","7.013","0.00203694","-0.000674465","0.00194725","0.00192787","-33.1117"
"0.243896","0.255768","7.313","0.00212767","-0.000829901","0.00203351","0.00201839","-39.0052"
"0.253271","0.262288","7.613","0.00220884","-0.000786591","0.00212485","0.00208999","-35.611"
"0.263477","0.273814","7.913","0.00239227","-0.000853557","0.00230447","0.00224218","-35.6798"
"0.273486","0.282456","8.213","0.00256428","-0.000780423","0.00247988","0.002507","-30.4344"
"0.283691","0.290029","8.513","0.00267847","-0.000809269","0.00270462","0.00264173","-30.2139"
"0.293604","0.296176","8.813","0.00277744","-0.000893092","0.00282418","0.00275838","-32.1552"
"0.303369","0.306766","9.113","0.00291527","-0.000869912","0.00295711","0.0028913","-29.8398"
"0.313623","0.136696","9.413","0.00302999","-0.000825127","0.0031261","0.00305567","-27.232"
"0.323926","0.139472","9.713","0.00478502","-0.0001409","0.00730848","0.00901962","-2.94461"
"0.333984","0.141039","10.013","0.005074","-0.000152562","0.0076307","0.0093857","-3.00674"
"0.343164","0.143473","10.313","0.00524917","-0.000104053","0.00797566","0.00986198","-1.98228"
"0.353516","0.14515","10.613","0.00538714","-0.000139095","0.00823412","0.0101755","-2.58198"
"0.364209","0.148261","10.913","0.0056188","-0.000162199","0.00853956","0.0105389","-2.88672"
"0.373291","0.150834","11.213","0.00582993","-0.000182012","0.00885871","0.0109169","-3.12203"
"0.383105","0.156239","11.513","0.00600961","-0.000192524","0.00907829","0.0113432","-3.2036"
"0.393701","0.156247","11.813","0.00616865","-0.000187635","0.00942288","0.0115955","-3.04175"
"0.403955","0.158242","12.113","0.00649477","-0.000193882","0.00973303","0.0119879","-2.9852"
"0.413574","0.161344","12.413","0.00672465","-0.000185583","0.0100702","0.0124588","-2.75974"
"0.423145","0.165511","12.713","0.00686766","-0.00018232","0.0103969","0.0127972","-2.65476"
"0.434131","0.165906","13.013","0.00708352","-0.00014263","0.0107251","0.0131451","-2.01355"
"0.443994","0.168064","13.313","0.00730911","-0.000118864","0.0109453","0.0134067","-1.62624"
"0.453418","0.16884","13.613","0.00748201","-0.000102751","0.0111897","0.0137927","-1.37331"
"0.463721","0.168624","13.913","0.00771192","-0.000114551","0.0115437","0.0141658","-1.48538"
"0.47373","0.17044","14.213","0.00800869","-0.000128674","0.0118962","0.0145479","-1.60668"
"0.483838","0.171898","14.513","0.00825567","-0.000138576","0.0121428","0.0149526","-1.67856"
"0.493701","0.172854","14.813","0.00850384","-0.000131489","0.0125741","0.0153196","-1.54623"
"0.503467","0.176107","15.113","0.00873821","-0.000129128","0.0128359","0.0156417","-1.47774"
"0.513672","0.175089","15.413","0.0091439","-0.000118275","0.0132303","0.0160106","-1.29349"
"0.523779","0.172358","15.713","0.00952675","-9.24446e-05","0.0136179","0.016472","-0.970369"
"0.533838","0.172465","16.013","0.00992246","-6.04797e-05","0.0140783","0.0168738","-0.609523"
"0.54292","0.169201","16.313","0.0105188","-4.87476e-05","0.0143835","0.0171586","-0.463433"
"0.553369","0.153811","16.613","0.0110485","-1.86624e-05","0.0148481","0.0175569","-0.168913"
"0.564111","0.135805","16.913","0.0122702","1.52191e-05","0.0156123","0.0178215","0.124033"
"0.573242","0.112696","17.213","0.0136878","0.00012507","0.0163104","0.0180215","0.913733"
"0.583105","0.104307","17.513","0.015138","3.4143e-05","0.0169873","0.0183086","0.225545"
"0.593701","0.0976732","17.813","0.015795","0.000101714","0.0174271","0.018678","0.643963"
"0.603906","0.0981932","18.113","0.0162845","0.00013106","0.0178506","0.0189466","0.804814"
"0.613525","0.0933593","18.413","0.0168953","0.000127484","0.018248","0.0191852","0.754553"
"0.623047","0.0914809","18.713","0.0172546","0.00013385","0.0186501","0.0195474","0.775735"
"0.634131","0.0865583","19.013","0.0178867","0.0001902","0.0191125","0.0200006","1.06336"
"0.644043","0.0846992","19.313","0.0185559","0.000223738","0.019591","0.0203574","1.20575"
"0.653467","0.0802297","19.613","0.0191888","0.000253422","0.0199926","0.0206444","1.32068"
"0.663721","0.0779083","19.913","0.0195417","0.000265712","0.020349","0.0209838","1.35972"
"0.67373","0.0761456","20.213","0.0199699","0.000291358","0.0207383","0.0213218","1.45899"
"0.683789","0.0781652","20.513","0.0204248","0.000319433","0.021116","0.0216792","1.56395"
"0.693652","0.0764397","20.813","0.0207668","0.000336139","0.0214527","0.0220312","1.61864"
"0.70332","0.0734638","21.113","0.0212865","0.000358843","0.0218358","0.0224227","1.68578"
"0.713428","0.0743864","21.413","0.021589","0.000307547","0.0222156","0.0226685","1.42455"
"0.720361","0.0757183","21.613","0.0218842","0.000315193","0.0225036","0.0229795","1.44028"