Folder: An-experimental-and-numerical-study-of-the-mechanical-response-of-3D-printed-semicrystalline-polymer/Raw_Data./Tensile Nozzle 0.4 mm/90 Degrees/LH0.1_90D_N0.4/Test Run 1 05-19-21 11 10 37 AM

File: DAQ- Crosshead, … - (Timed).csv
"File Path: G:\TT\9\Test Run 1 05-19-21 11 10 37 AM\DAQ- Crosshead, … - (Timed).csv   "
"Test: Robin_Tension_4_DIC_Signals 9"
"Test Run: Test Run 1"
"Date: 18/05/2021 15:24:52"
""
""
"Crosshead ","Load ","Time ","Strain 1 ","Strain 2 ","Strain 3 ","Strain 4 ","PoissonRatio "
"mm","kN","sec","mm/mm","mm/mm","mm/mm","mm/mm","%"
"0.000830078","0.00311086","0.115","-1.08074e-05","-2.12875e-05","-2.19543e-05","3.13682e-06","196.972"
"0.00454102","0.00498148","0.315","1.11142e-05","4.30262e-05","-4.13898e-05","-1.75773e-05","387.128"
"0.0105469","0.0103578","0.515","-1.63735e-05","-4.28138e-05","1.10335e-05","1.06664e-05","261.482"
"0.0172363","0.0194318","0.715","5.1955e-05","-4.78869e-05","5.86167e-05","9.31892e-05","-92.17"
"0.0242188","0.0274566","0.915","0.000109588","-9.96696e-05","8.2606e-05","0.000104694","-90.9494"
"0.0321289","0.0392655","1.115","0.000128621","-0.00013725","0.000140219","0.000179993","-106.709"
"0.0392578","0.0496809","1.315","0.000201516","-0.00013496","0.000202647","0.000243706","-66.9724"
"0.0464355","0.0579836","1.515","0.000241813","-0.000169678","0.000284621","0.000323617","-70.1691"
"0.0530273","0.0667461","1.715","0.000290183","-0.000219695","0.000304175","0.00032544","-75.7091"
"0.0604004","0.0782973","1.915","0.000348318","-0.000253042","0.000330262","0.000365632","-72.6468"
"0.067627","0.0864985","2.115","0.000380131","-0.000292711","0.000403552","0.00042132","-77.0027"
"0.0745606","0.0931097","2.315","0.000435484","-0.000285632","0.000438113","0.00045923","-65.5896"
"0.0817871","0.103327","2.515","0.000498091","-0.000355947","0.000481775","0.000490627","-71.4622"
"0.0884277","0.110929","2.715","0.000546113","-0.000412169","0.000536571","0.000538484","-75.4732"
"0.0953125","0.122313","2.915","0.000630237","-0.000383272","0.000671949","0.000653891","-60.8139"
"0.102148","0.12949","3.115","0.000669256","-0.000348561","0.000664407","0.000645664","-52.0819"
"0.108691","0.136152","3.315","0.000781553","-0.000514794","0.000796239","0.000788685","-65.8681"
"0.115918","0.146032","3.515","0.000814857","-0.000520883","0.000882847","0.00088556","-63.9232"
"0.122998","0.156493","3.715","0.000899552","-0.000577935","0.000938548","0.000937649","-64.247"
"0.130029","0.165378","3.915","0.000953513","-0.000578344","0.000964916","0.000960972","-60.654"
"0.136426","0.170955","4.115","0.000974253","-0.000644585","0.0010158","0.00100536","-66.162"
"0.142822","0.18108","4.315","0.00100124","-0.00063833","0.00104397","0.00106302","-63.7539"
"0.149707","0.188766","4.515","0.00104765","-0.00067704","0.00108212","0.00109535","-64.6246"
"0.156787","0.195765","4.715","0.00110586","-0.000705327","0.00114584","0.00117416","-63.7809"
"0.164209","0.205456","4.915","0.00114051","-0.000713185","0.00118331","0.00121487","-62.5321"
"0.170313","0.214846","5.115","0.00121588","-0.000780742","0.00124118","0.00126988","-64.2121"
"0.176611","0.221752","5.315","0.00126527","-0.000736006","0.00126383","0.00128534","-58.1699"
"0.183203","0.2281","5.515","0.00130973","-0.00078849","0.00132766","0.00135957","-60.2025"
"0.18999","0.237117","5.715","0.00136306","-0.000803095","0.00139152","0.00142523","-58.9185"
"0.197607","0.247509","5.915","0.00145897","-0.000853978","0.00149218","0.00153104","-58.5329"
"0.204102","0.253492","6.115","0.00153167","-0.000893613","0.00159504","0.00163388","-58.3424"
"0.210303","0.26214","6.315","0.00159124","-0.000856386","0.00161142","0.00164441","-53.8188"
"0.216699","0.268004","6.515","0.00161187","-0.00096177","0.00164025","0.00168483","-59.668"
"0.223242","0.275952","6.715","0.00165372","-0.000973884","0.00167531","0.00171471","-58.8905"
"0.230566","0.284384","6.915","0.00167541","-0.000969947","0.00174264","0.00178375","-57.8931"
"0.237305","0.291097","7.115","0.0017385","-0.000977222","0.00181947","0.00183944","-56.2106"
"0.243994","0.298494","7.315","0.00185137","-0.00113054","0.00185843","0.00188718","-61.065"
"0.250146","0.305909","7.515","0.00185825","-0.00114622","0.00192645","0.0019358","-61.6828"
"0.256592","0.309381","7.715","0.00195019","-0.00112363","0.00202713","0.00204098","-57.6164"
"0.263574","0.31927","7.915","0.00203382","-0.00116467","0.00209249","0.00210356","-57.2651"
"0.270117","0.325226","8.115","0.00210047","-0.00125805","0.00213532","0.00213792","-59.8937"
"0.277002","0.335065","8.315","0.00211076","-0.00117489","0.00218276","0.0021835","-55.6619"
"0.28374","0.337914","8.515","0.00219782","-0.00123627","0.00225768","0.00226523","-56.2498"
"0.290186","0.347748","8.715","0.00225306","-0.00121683","0.00233871","0.00234446","-54.0079"
"0.297119","0.355238","8.915","0.00231961","-0.00120087","0.00237635","0.00239441","-51.7703"
"0.303418","0.360156","9.115","0.00236472","-0.00126191","0.00243685","0.00245305","-53.364"
"0.31001","0.368535","9.315","0.00240882","-0.00129108","0.00247654","0.00249982","-53.598"
"0.316992","0.373348","9.515","0.00246377","-0.00133015","0.00252403","0.00254717","-53.9884"
"0.323877","0.382235","9.715","0.00250164","-0.0013484","0.00256675","0.00258598","-53.9006"
"0.330615","0.390083","9.915","0.0025751","-0.00137797","0.00263765","0.00267288","-53.5113"
"0.336816","0.395906","10.115","0.00262055","-0.00140887","0.00272901","0.00271555","-53.7624"
"0.343115","0.403665","10.315","0.00269941","-0.00143529","0.00274714","0.00278106","-53.1705"
"0.349951","0.409766","10.515","0.00275356","-0.00145141","0.00282213","0.00286927","-52.7103"
"0.356885","0.41454","10.715","0.00281637","-0.0014818","0.00287704","0.0029247","-52.6138"
"0.364209","0.424949","10.915","0.00288923","-0.0015152","0.00292548","0.00297198","-52.443"
"0.370215","0.426928","11.115","0.00292442","-0.00153209","0.00297577","0.00302124","-52.3895"
"0.376563","0.433693","11.315","0.00297456","-0.00156513","0.00302955","0.0030881","-52.6172"
"0.383154","0.438466","11.515","0.00301711","-0.00158498","0.00307585","0.0031361","-52.5331"
"0.389941","0.444937","11.715","0.00308106","-0.001596","0.00314584","0.00318972","-51.8004"
"0.39751","0.45229","11.915","0.00312391","-0.00162593","0.00319129","0.00324378","-52.0479"
"0.404004","0.457044","12.115","0.00320338","-0.00160887","0.00326542","0.00331977","-50.2241"
"0.410254","0.462675","12.315","0.00325763","-0.0016725","0.00330765","0.00334048","-51.341"
"0.41665","0.468364","12.515","0.00331994","-0.00167868","0.00336921","0.00340265","-50.5636"
"0.423193","0.470741","12.715","0.0033713","-0.00169305","0.00339065","0.00340839","-50.2195"
"0.430566","0.479383","12.915","0.00344316","-0.00172389","0.00352647","0.00354586","-50.0671"
"0.437256","0.482468","13.115","0.00353971","-0.00176193","0.00362494","0.00363221","-49.7761"
"0.444092","0.488344","13.315","0.00353507","-0.00179279","0.00363592","0.00365086","-50.7144"
"0.450244","0.493047","13.515","0.00370352","-0.0018101","0.00379146","0.0038053","-48.8751"
"0.456836","0.495009","13.715","0.00368526","-0.00181586","0.00378821","0.00381228","-49.2736"
"0.463867","0.502984","13.915","0.00376148","-0.00184222","0.00389283","0.00394095","-48.9759"
"0.47041","0.50745","14.115","0.00376999","-0.0018824","0.00387598","0.00389756","-49.9312"
"0.477344","0.512846","14.315","0.00386792","-0.00191818","0.00395806","0.00398158","-49.592"
"0.484033","0.51983","14.515","0.0038969","-0.0019593","0.00398701","0.00402519","-50.2784"
"0.490479","0.524933","14.715","0.00392151","-0.00196406","0.00401898","0.00406698","-50.0843"
"0.497363","0.527495","14.915","0.0039962","-0.00198832","0.00407018","0.00412411","-49.7553"
"0.503613","0.531083","15.115","0.00405436","-0.00198052","0.00410806","0.00414843","-48.8491"
"0.510205","0.536864","15.315","0.00407846","-0.00199129","0.00415432","0.00420092","-48.8246"
"0.517139","0.539263","15.515","0.00419852","-0.00196982","0.00426982","0.004305","-46.917"
"0.524023","0.542166","15.715","0.00424269","-0.0020392","0.00430594","0.004366","-48.0638"
"0.530762","0.545336","15.915","0.00426651","-0.00205629","0.00433234","0.00437403","-48.1961"
"0.534375","0.0225735","16.022","0.00429608","-0.00207896","0.00433324","0.00436419","-48.392"