Folder: An-experimental-and-numerical-study-of-the-mechanical-response-of-3D-printed-semicrystalline-polymer/Raw_Data./Tensile Nozzle 0.4 mm/90 Degrees/LH0.1_90D_N0.4/Test Run 4 05-19-21 11 10 37 AM

File: DAQ- Crosshead, … - (Timed).csv
"File Path: G:\TT\9\Test Run 4 05-19-21 11 10 37 AM\DAQ- Crosshead, … - (Timed).csv   "
"Test: Robin_Tension_4_DIC_Signals 9"
"Test Run: Test Run 4"
"Date: 18/05/2021 15:29:47"
""
""
"Crosshead ","Load ","Time ","Strain 1 ","Strain 2 ","Strain 3 ","Strain 4 ","PoissonRatio "
"mm","kN","sec","mm/mm","mm/mm","mm/mm","mm/mm","%"
"0.000878906","-0.0499677","0.116","1.9579e-05","6.02705e-05","4.96847e-06","-5.71142e-06","307.832"
"0.00478516","-0.0482547","0.316","2.8409e-05","3.01374e-05","2.25759e-06","4.56742e-07","106.084"
"0.0108887","-0.0384641","0.516","5.15701e-05","2.88704e-05","2.67391e-05","1.20278e-05","55.9828"
"0.0175781","-0.0298104","0.716","9.53068e-05","8.5884e-06","7.82434e-05","6.02104e-05","9.01132"
"0.0245605","-0.0200647","0.916","0.000132988","-1.06486e-05","0.000120028","0.00011168","-8.00719"
"0.0325195","-0.0112149","1.116","0.000220054","-3.17248e-05","0.000215708","0.000201681","-14.4168"
"0.0395996","-0.00250803","1.316","0.000303063","-5.17167e-05","0.00029703","0.000285024","-17.0647"
"0.0467285","0.00534995","1.516","0.000338062","-9.31156e-05","0.000323793","0.000317482","-27.5439"
"0.0532715","0.017308","1.716","0.000399761","-0.000128216","0.000381914","0.000366198","-32.0732"
"0.0605957","0.0257343","1.916","0.000440545","-0.00012645","0.000412633","0.000401072","-28.7031"
"0.0678711","0.0310534","2.116","0.000494217","-7.81493e-05","0.000482573","0.000464751","-15.8128"
"0.074707","0.0422894","2.316","0.000565545","-8.53914e-05","0.000550444","0.000536588","-15.099"
"0.0819336","0.0496638","2.516","0.000647963","-9.22898e-05","0.000625026","0.000615833","-14.2431"
"0.0884766","0.0582354","2.716","0.000721307","-0.000100917","0.000693056","0.000681162","-13.9909"
"0.0954102","0.0648814","2.916","0.000820564","-0.000119643","0.00079067","0.000773534","-14.5806"
"0.102197","0.0756125","3.116","0.000896018","-0.000134741","0.000835641","0.000810167","-15.0378"
"0.108789","0.0834452","3.316","0.000969366","-0.000162279","0.00091877","0.000907164","-16.7407"
"0.115967","0.0935684","3.516","0.00100207","-0.00018959","0.000987663","0.000966448","-18.9198"
"0.123047","0.0994021","3.716","0.000981972","-0.000216062","0.000995438","0.00101818","-22.0029"
"0.130029","0.108964","3.916","0.00103844","-0.000217655","0.00106215","0.0010894","-20.9598"
"0.136426","0.117227","4.116","0.00110261","-0.000279888","0.00110415","0.00111275","-25.3841"
"0.142822","0.122743","4.316","0.00116006","-0.000227386","0.00117117","0.001181","-19.6012"
"0.149707","0.131577","4.516","0.00118879","-0.000284135","0.00118139","0.00119448","-23.9012"
"0.156787","0.138486","4.716","0.00127794","-0.000316471","0.00126799","0.00127465","-24.7642"
"0.164209","0.148788","4.916","0.00132853","-0.00027572","0.00131921","0.00132649","-20.7538"
"0.170313","0.157618","5.116","0.00140622","-0.000346686","0.00139412","0.00140321","-24.6538"
"0.176611","0.165568","5.316","0.00145354","-0.000328862","0.0014534","0.00146521","-22.6249"
"0.183203","0.169921","5.516","0.00152526","-0.00035434","0.00152697","0.00153627","-23.2314"
"0.18999","0.177998","5.716","0.00163069","-0.000260922","0.00162148","0.00162278","-16.0007"
"0.197656","0.186043","5.916","0.00168104","-0.000259203","0.00165348","0.00165405","-15.4192"
"0.204102","0.197609","6.116","0.00175277","-0.000351763","0.00172039","0.00172609","-20.069"
"0.210303","0.203572","6.316","0.0017907","-0.000339385","0.00175004","0.00176483","-18.9526"
"0.216748","0.2137","6.516","0.00184483","-0.000320735","0.0018442","0.00184898","-17.3856"
"0.223242","0.219689","6.716","0.00189557","-0.000346343","0.00190509","0.00192558","-18.2712"
"0.230615","0.227325","6.916","0.00195969","-0.000422696","0.00194698","0.00195312","-21.5695"
"0.237305","0.233203","7.116","0.0019848","-0.000444711","0.00197158","0.00198412","-22.4058"
"0.243994","0.24299","7.316","0.0020759","-0.000415543","0.00204156","0.00204566","-20.0175"
"0.250146","0.247333","7.516","0.0021504","-0.000417778","0.00211163","0.00212183","-19.4279"
"0.256592","0.255988","7.716","0.00222002","-0.000428784","0.00219567","0.00220381","-19.3144"
"0.263574","0.262862","7.916","0.00228525","-0.000436724","0.002262","0.00226334","-19.1106"
"0.270117","0.26653","8.116","0.00236991","-0.000444982","0.00234406","0.00234461","-18.7763"
"0.277002","0.275592","8.316","0.00244936","-0.000445716","0.00242802","0.00242969","-18.1972"
"0.28374","0.284914","8.516","0.00250247","-0.000504752","0.00249048","0.00250125","-20.1702"
"0.290186","0.289969","8.716","0.0025611","-0.000494633","0.00254186","0.00254514","-19.3133"
"0.297119","0.297695","8.916","0.00262655","-0.000515957","0.00261008","0.00262021","-19.6439"
"0.303418","0.302021","9.116","0.00268631","-0.000498124","0.00267969","0.00270455","-18.5431"
"0.310059","0.309629","9.316","0.00273525","-0.000472712","0.00273439","0.00275606","-17.2822"
"0.317041","0.318991","9.516","0.00279801","-0.000461963","0.00280226","0.00282256","-16.5104"
"0.323926","0.32488","9.716","0.00286138","-0.000503642","0.00285221","0.00288049","-17.6014"
"0.330664","0.333876","9.916","0.0029637","-0.000491594","0.00294884","0.00297169","-16.5872"
"0.336865","0.338395","10.116","0.00305428","-0.000501031","0.00299403","0.00301361","-16.4042"
"0.343164","0.344535","10.316","0.00311468","-0.000495451","0.00306193","0.00307437","-15.907"
"0.35","0.349525","10.516","0.00315367","-0.000546796","0.0031464","0.00316685","-17.3384"
"0.356934","0.355296","10.716","0.00322603","-0.000529843","0.00321186","0.00323624","-16.424"
"0.364258","0.36705","10.916","0.00330987","-0.000555477","0.00330881","0.00333588","-16.7824"
"0.370264","0.369922","11.116","0.00334513","-0.000572755","0.00333746","0.00336051","-17.1221"
"0.376611","0.379267","11.316","0.00341073","-0.000551184","0.00341729","0.00342988","-16.1603"
"0.383203","0.384731","11.516","0.00342194","-0.000582368","0.00343066","0.0034434","-17.0187"
"0.38999","0.391165","11.716","0.00353543","-0.000631331","0.00351475","0.00353181","-17.8573"
"0.397607","0.394397","11.916","0.00360473","-0.000628224","0.00355102","0.00355753","-17.6054"
"0.404053","0.401972","12.116","0.00366318","-0.000605646","0.00364295","0.003659","-16.5333"
"0.410303","0.40442","12.316","0.00371775","-0.000578749","0.0036918","0.00369925","-15.5672"
"0.416699","0.41108","12.516","0.00383177","-0.000588108","0.0037945","0.00379568","-15.3482"
"0.423242","0.413955","12.716","0.0039225","-0.000584563","0.00387473","0.00387797","-14.9028"
"0.430615","0.423926","12.916","0.00393085","-0.00057647","0.00387044","0.0038752","-14.6653"
"0.437305","0.427213","13.116","0.00406785","-0.000545342","0.0039997","0.00399169","-13.4061"
"0.444092","0.432618","13.316","0.00410195","-0.0005583","0.00407222","0.00407215","-13.6106"
"0.450244","0.4396","13.516","0.00414039","-0.000590852","0.00413594","0.00414393","-14.2704"
"0.456836","0.443633","13.716","0.00419823","-0.000561922","0.0041935","0.0042005","-13.3847"
"0.463867","0.446375","13.916","0.00425933","-0.000588018","0.00424261","0.00422453","-13.8054"
"0.465381","0.027587","13.959","0.00430513","-0.000588018","0.00424261","0.00422453","-13.6585"