Folder: An-experimental-and-numerical-study-of-the-mechanical-response-of-3D-printed-semicrystalline-polymer/Raw_Data./Tensile Nozzle 0.4 mm/45 Degrees/LH0.2_45D_N0.4/Test Run 3 02-21-20 13 00 13 PM

File: DAQ- Crosshead, … - (Timed).txt
File Path: C:\Users\MTS 300\Desktop\robin\eprouvette 45 lh02\Test Run 1 02-21-20 13 00 13 PM\DAQ- Crosshead, … - (Timed).txt
Test: Tensile test LEI 22
Test Run: Test Run 1
Date: 21/02/2020 12:59:20

Crosshead 	Load 	Time 	Strain 1 	Strain 2
mm	kN	sec	mm/mm	mm/mm
0.00400391	-0.00535433	0.117	-1.66995e-05	6.08255e-05
0.0171875	0.00657107	0.317	2.60447e-05	5.28485e-06
0.0340332	0.0227752	0.517	0.000227479	-2.27361e-05
0.0512695	0.0336568	0.717	0.000418554	-8.41562e-05
0.0688965	0.0504699	0.917	0.000519033	-0.000108851
0.0866699	0.0660975	1.117	0.000893566	-0.000453586
0.104102	0.0818064	1.317	0.00101978	-0.000507085
0.121826	0.096543	1.517	0.0010751	-0.00057675
0.138867	0.109516	1.717	0.00132936	-0.000636878
0.156494	0.124514	1.917	0.00160555	-0.000611431
0.173828	0.137712	2.117	0.00188229	-0.000633337
0.19082	0.150152	2.317	0.00192979	-0.000646491
0.208154	0.163208	2.517	0.00219375	-0.0006696
0.224561	0.177232	2.717	0.00236685	-0.000729156
0.24209	0.190867	2.917	0.00263943	-0.000993864
0.258203	0.199395	3.117	0.00287886	-0.00107992
0.275537	0.212913	3.317	0.00314621	-0.00114913
0.29165	0.222075	3.517	0.00333175	-0.00115804
0.30874	0.235868	3.717	0.00342349	-0.00114691
0.325391	0.245832	3.917	0.00355056	-0.00121507
0.342285	0.260801	4.117	0.00371635	-0.00121709
0.35918	0.272199	4.317	0.00388484	-0.00126056
0.375977	0.285285	4.517	0.00421886	-0.0013045
0.392529	0.293334	4.717	0.00434944	-0.00139044
0.40957	0.304142	4.917	0.00464637	-0.00158042
0.425684	0.314173	5.117	0.00475638	-0.0015815
0.44292	0.324754	5.317	0.00484512	-0.00166268
0.458887	0.33625	5.517	0.00515171	-0.00175861
0.476416	0.344185	5.717	0.00528997	-0.00176131
0.492676	0.353272	5.917	0.00554846	-0.00178092
0.509814	0.363884	6.117	0.00574498	-0.001837
0.526221	0.374307	6.317	0.0060768	-0.00188569
0.543018	0.382311	6.517	0.00586121	-0.00190009
0.559814	0.391044	6.717	0.00619175	-0.00203959
0.576367	0.399762	6.917	0.00651533	-0.0021006
0.592725	0.406997	7.117	0.00669265	-0.002204
0.609521	0.419373	7.317	0.00683086	-0.00223636
0.625732	0.426334	7.517	0.00706009	-0.00230219
0.643164	0.435845	7.717	0.00730808	-0.00238774
0.65918	0.441083	7.917	0.00741529	-0.00237104
0.676562	0.451342	8.117	0.00764042	-0.00243692
0.692773	0.460734	8.317	0.00777622	-0.00252163
0.709863	0.465146	8.517	0.00808513	-0.00260058
0.726367	0.475972	8.717	0.00829074	-0.00262247
0.743018	0.481848	8.917	0.00828845	-0.00270129
0.759619	0.490252	9.117	0.00852663	-0.00279238
0.776172	0.497242	9.317	0.00872137	-0.00285855
0.792773	0.505241	9.517	0.00894535	-0.00287847
0.809814	0.51058	9.717	0.00911746	-0.00293665
0.826025	0.520791	9.917	0.00946191	-0.00301502
0.843262	0.525136	10.117	0.00954705	-0.00306348
0.859228	0.531659	10.317	0.00975687	-0.00315567
0.876807	0.540284	10.517	0.00989923	-0.00318467
0.892969	0.547237	10.717	0.0101779	-0.00358982
0.909863	0.553714	10.917	0.0103672	-0.00366661
0.926172	0.558603	11.117	0.010607	-0.00347043
0.942822	0.566121	11.317	0.0106663	-0.00349087
0.95957	0.567558	11.517	0.0108873	-0.00353664
0.976318	0.577749	11.717	0.0110748	-0.00352335
0.992725	0.587338	11.917	0.0113451	-0.00366527
1.00962	0.592123	12.117	0.0114458	-0.00368797
1.02598	0.596487	12.317	0.0116924	-0.00435369
1.04341	0.60311	12.517	0.0119143	-0.00418287
1.05947	0.608621	12.717	0.0120257	-0.00427643
1.07676	0.612997	12.917	0.0123819	-0.00425151
1.09263	0.621714	13.117	0.0124917	-0.00435966
1.10962	0.625321	13.317	0.0127231	-0.00445799
1.12612	0.633291	13.517	0.0128762	-0.00454073
1.14282	0.636959	13.717	0.0128979	-0.00416429
1.15952	0.642877	13.917	0.0131393	-0.00480881
1.17607	0.649912	14.117	0.0133442	-0.00491939
1.19268	0.654896	14.317	0.0137362	-0.00472821
1.20981	0.66032	14.517	0.0139038	-0.00472517
1.22603	0.664709	14.717	0.0141038	-0.00477646
1.24321	0.670969	14.917	0.0142198	-0.00480588
1.25908	0.674719	15.117	0.0144469	-0.00487921
1.27651	0.678812	15.317	0.0146268	-0.00501339
1.29263	0.683697	15.517	0.0148306	-0.00516709
1.30972	0.690604	15.717	0.0149522	-0.00536838
1.32612	0.694954	15.917	0.0153885	-0.00549737
1.34297	0.699456	16.117	0.0153209	-0.00538333
1.35986	0.704575	16.317	0.0154527	-0.00537736
1.37661	0.709185	16.517	0.0156964	-0.00543379
1.39316	0.710449	16.717	0.0160029	-0.00541297
1.40986	0.71859	16.917	0.0162225	-0.00545332
1.42583	0.721153	17.117	0.0166362	-0.00551865
1.44307	0.722609	17.317	0.016844	-0.00556531
1.45889	0.725296	17.517	0.0168618	-0.00602979
1.47607	0.730547	17.717	0.0170154	-0.00607221
1.49209	0.734351	17.917	0.0171997	-0.00614534
1.50903	0.738184	18.117	0.0174803	-0.00599046
1.52563	0.742586	18.317	0.0176747	-0.00603357
1.54243	0.745992	18.517	0.0181895	-0.00605063
1.55928	0.746903	18.717	0.0181528	-0.0060736
1.57607	0.748176	18.917	0.018406	-0.00618557
1.59258	0.752547	19.117	0.0185414	-0.00625671
1.60957	0.758726	19.317	0.0186314	-0.00639844
1.62578	0.75983	19.517	0.018894	-0.00680806
1.64302	0.762713	19.717	0.0190348	-0.00685389
1.65898	0.766787	19.917	0.0194752	-0.00669907
1.67646	0.771392	20.117	0.0196462	-0.00669865
1.69263	0.772554	20.317	0.0199743	-0.00667927
1.70972	0.774637	20.517	0.0201145	-0.00670823
1.72617	0.778524	20.717	0.0203739	-0.00682189
1.74292	0.778146	20.917	0.0205515	-0.00687777
1.75967	0.78184	21.117	0.0206157	-0.00741343
1.77627	0.784819	21.317	0.0208835	-0.00754963
1.79268	0.782904	21.517	0.0211051	-0.00743563
1.80942	0.786292	21.717	0.0213993	-0.00741171
1.82563	0.78731	21.917	0.0215425	-0.00738489
1.84307	0.792263	22.117	0.0217682	-0.00743118
1.85908	0.791072	22.317	0.0218623	-0.00743516
1.87651	0.791793	22.517	0.022245	-0.00753966
1.89263	0.793811	22.717	0.0224169	-0.00761237
1.90972	0.797054	22.917	0.0226814	-0.00812971
1.92627	0.797676	23.117	0.023008	-0.00822817
1.94292	0.798258	23.317	0.0227921	-0.00811302
1.95967	0.798038	23.517	0.0230234	-0.00809131
1.97632	0.801015	23.717	0.0232846	-0.00807813
1.99292	0.803729	23.917	0.0236808	-0.00809773
2.00991	0.803799	24.117	0.0238307	-0.00816736
2.02603	0.805451	24.317	0.0240922	-0.00828799
2.04326	0.8083	24.517	0.0243036	-0.00833535
2.05928	0.807103	24.717	0.0245062	-0.00886285
2.07676	0.809254	24.917	0.02469	-0.00892321
2.09282	0.808161	25.117	0.0248914	-0.00872079
2.10967	0.808321	25.317	0.025265	-0.0087118
2.12583	0.810343	25.517	0.0250376	-0.00877338
2.14248	0.809759	25.717	0.025283	-0.0088323
2.15928	0.811633	25.917	0.0255326	-0.00889555
2.17598	0.811042	26.117	0.025872	-0.00899662
2.19233	0.812485	26.317	0.0261085	-0.00943733
2.20918	0.812885	26.517	0.0264536	-0.009539
2.22549	0.812725	26.717	0.0266126	-0.00939001
2.24307	0.814271	26.917	0.0268432	-0.00939261
2.25913	0.811415	27.117	0.0270629	-0.00933554
2.27642	0.813607	27.317	0.0269794	-0.00943827
2.29238	0.813696	27.517	0.0271106	-0.00949173
2.30942	0.814725	27.717	0.0273306	-0.00959686
2.32607	0.813522	27.917	0.0276495	-0.00970215
2.34302	0.816034	28.117	0.0278389	-0.0101025
2.35977	0.81227	28.317	0.0283231	-0.00993812
2.37632	0.812213	28.517	0.0285876	-0.0100214
2.39287	0.814398	28.717	0.0288395	-0.0100485
2.40986	0.813045	28.917	0.0289287	-0.0100217
2.42612	0.811377	29.117	0.0292911	-0.0101845
2.44326	0.813112	29.317	0.0294751	-0.0103114
2.45903	0.814185	29.517	0.0293329	-0.0106888
2.47642	0.812623	29.717	0.0295541	-0.0107894
2.49263	0.814322	29.917	0.0298803	-0.0106048
2.50962	0.813759	30.117	0.0300981	-0.0106081
2.52607	0.814099	30.317	0.0303817	-0.0107013
2.54282	0.814188	30.517	0.0307161	-0.0107057
2.55972	0.814078	30.717	0.0309325	-0.0108836
2.57651	0.810419	30.917	0.0311207	-0.0109924
2.59307	0.812623	31.117	0.0314102	-0.0113038
2.60977	0.811386	31.317	0.0317302	-0.011459
2.62588	0.813291	31.517	0.0319131	-0.011493
2.64321	0.811666	31.717	0.0318438	-0.0113316
2.65918	0.810087	31.917	0.0319918	-0.011353
2.67646	0.814048	32.117	0.0322452	-0.0114139
2.69248	0.810466	32.317	0.0326305	-0.0115299
2.70962	0.809636	32.517	0.0329426	-0.0116947
2.72617	0.805534	32.717	0.03319	-0.0120355
2.74302	0.802574	32.917	0.0334373	-0.0120931
2.75981	0.809063	33.117	0.0335634	-0.0121402
2.77637	0.808033	33.317	0.0338282	-0.0119359
2.79282	0.806393	33.517	0.0341412	-0.0120359
2.80972	0.805934	33.717	0.0343584	-0.0120656
2.82578	0.800456	33.917	0.034384	-0.0122059
2.84302	0.769364	34.117	0.0346007	-0.0126323
2.85898	0.728499	34.317	0.0341166	-0.0120483
2.87646	0.707878	34.517	0.0332871	-0.0119268
2.89263	0.687935	34.717	0.0329956	-0.0122787
2.90981	0.213594	34.917	0.0328786	-0.011693
2.9104	-0.0284459	34.924	0.0328786	-0.011693