Folder: An-experimental-and-numerical-study-of-the-mechanical-response-of-3D-printed-semicrystalline-polymer/DSC/Crystallisation Speed/Crystallisation time at Temperature T

File: crystal 80 deg.csv
Time,Unsubtracted Heat Flow,Baseline Heat Flow,Program Temperature,Sample Temperature,Approx. Gas Flow,Heat Flow Calibration,Uncorrected Heat Flow,
0.000000,9.261655,0.190191,30.02,30.058,0.000000,1.056615,9.261655,
0.073333,-3.401773,-12.4792,37.045,35.391,0.000000,1.056615,-3.401773,
0.146667,12.8721,-6.071945,44.07,42.441,0.000000,1.056615,12.8721,
0.220000,22.0882,-5.132614,51.1,49.483,0.000000,1.056615,22.0882,
0.293333,26.9257,-4.727614,58.125,56.52,0.000000,1.056615,26.9257,
0.366667,29.6271,-4.361285,65.15,63.558,0.000000,1.056615,29.6271,
0.440000,30.9706,-3.987138,72.179,70.608,0.000000,1.056615,30.9706,
0.513333,33.1318,-3.550544,79.204,77.658,0.000000,1.056615,33.1318,
0.586667,37.6322,-3.024561,86.229,84.691,0.000000,1.056615,37.6322,
0.660000,40.8671,-2.564405,93.258,91.725,0.000000,1.056615,40.8671,
0.733333,41.2883,-2.073185,100.283,98.754,0.000000,1.056615,41.2883,
0.806667,41.3785,-1.562840,107.308,105.787,0.000000,1.056615,41.3785,
0.880000,41.5185,-1.026290,114.337,112.825,0.000000,1.056615,41.5185,
0.953333,41.7697,-0.467552,121.362,119.858,0.000000,1.056615,41.7697,
1.026667,42.0901,0.088227,128.387,126.891,0.000000,1.056615,42.0901,
1.100000,42.6182,0.681306,135.416,133.933,0.000000,1.056615,42.6182,
1.173333,43.4107,1.258006,142.441,140.983,0.000000,1.056615,43.4107,
1.246667,44.5341,1.904232,149.47,148.016,0.000000,1.056615,44.5341,
1.320000,46.0973,2.564722,156.495,155.041,0.000000,1.056615,46.0973,
1.393333,48.2612,3.238631,163.52,162.083,0.000000,1.056615,48.2612,
1.466667,49.33,4.033734,170.55,169.12,0.000000,1.056615,49.33,
1.540000,49.5702,4.837185,177.575,176.145,0.000000,1.056615,49.5702,
1.613333,50.1147,5.531804,184.6,183.175,0.000000,1.056615,50.1147,
1.686667,50.286,6.302921,191.629,190.212,0.000000,1.056615,50.286,
1.760000,49.7422,7.104153,198.654,197.254,0.000000,1.056615,49.7422,
1.833333,50.0282,7.941520,205.679,204.291,0.000000,1.056615,50.0282,
1.906667,52.5478,8.851794,212.708,211.325,0.000000,1.056615,52.5478,
1.980000,53.9493,9.751185,219.733,218.35,0.000000,1.056615,53.9493,
2.108333,71.0126,36.6002,225,225.116,0.000000,1.056615,71.0126,
2.401667,32.5879,27.3876,225,225.058,0.000000,1.056615,32.5879,
2.695000,28.7826,27.379,225,225.062,0.000000,1.056615,28.7826,
2.988333,28.4069,27.3717,225,225.066,0.000000,1.056615,28.4069,
3.281667,28.337,27.3657,225,225.07,0.000000,1.056615,28.337,
3.575000,28.3074,27.3607,225,225.066,0.000000,1.056615,28.3074,
3.868333,28.2893,27.3582,225,225.066,0.000000,1.056615,28.2893,
4.161667,28.2739,27.3527,225,225.066,0.000000,1.056615,28.2739,
4.455000,28.2631,27.3472,225,225.07,0.000000,1.056615,28.2631,
4.748333,28.2516,27.3463,225,225.066,0.000000,1.056615,28.2516,
5.041667,28.2411,27.3437,225,225.075,0.000000,1.056615,28.2411,
5.335000,28.2266,27.3411,225,225.075,0.000000,1.056615,28.2266,
5.628333,28.2151,27.3388,225,225.075,0.000000,1.056615,28.2151,
5.921667,28.2058,27.3365,225,225.075,0.000000,1.056615,28.2058,
6.215000,28.1976,27.3357,225,225.075,0.000000,1.056615,28.1976,
6.508333,28.1904,27.3324,225,225.075,0.000000,1.056615,28.1904,
6.801667,28.1812,27.3296,225,225.075,0.000000,1.056615,28.1812,
7.055000,23.7965,5.323122,222.645,224.862,0.000000,1.056615,23.7965,
7.128333,44.0574,28.5743,209.912,213.37,0.000000,1.056615,44.0574,
7.201667,14.5923,19.9233,197.179,200.7,0.000000,1.056615,14.5923,
7.275000,-4.469694,16.6494,184.445,188.07,0.000000,1.056615,-4.469694,
7.348333,-13.9508,14.4911,171.712,175.458,0.000000,1.056615,-13.9508,
7.421667,-18.5055,12.4217,158.979,162.862,0.000000,1.056615,-18.5055,
7.495000,-20.511,10.2194,146.245,150.312,0.000000,1.056615,-20.511,
7.568333,-20.7436,7.573924,133.512,137.808,0.000000,1.056615,-20.7436,
7.641667,-18.8701,4.006474,120.779,125.387,0.000000,1.056615,-18.8701,
7.715000,-20.5001,1.897153,108.045,113.225,0.000000,1.056615,-20.5001,
7.788333,-24.3714,3.709776,95.312,101.883,0.000000,1.056615,-24.3714,
7.861667,-25.9439,3.724991,82.583,91.341,0.000000,1.056615,-25.9439,
8.111250,-19.6657,11.4884,80,80.12,0.000000,1.056615,-19.6657,
8.404583,9.425748,12.1497,80,80.1,0.000000,1.056615,9.425748,
8.697917,12.1083,12.1485,80,80.095,0.000000,1.056615,12.1083,
8.991250,12.3795,12.1461,80,80.095,0.000000,1.056615,12.3795,
9.284583,12.4149,12.1463,80,80.091,0.000000,1.056615,12.4149,
9.577917,12.4229,12.1466,80,80.091,0.000000,1.056615,12.4229,
9.871250,12.4257,12.1449,80,80.091,0.000000,1.056615,12.4257,
10.1646,12.4283,12.1463,80,80.091,0.000000,1.056615,12.4283,
10.4579,12.4289,12.1461,80,80.091,0.000000,1.056615,12.4289,
10.7513,12.4306,12.1458,80,80.087,0.000000,1.056615,12.4306,
11.0446,12.431,12.1457,80,80.087,0.000000,1.056615,12.431,
11.3379,12.4327,12.1455,80,80.087,0.000000,1.056615,12.4327,
11.6312,12.4334,12.1457,80,80.091,0.000000,1.056615,12.4334,
11.9246,12.434,12.1449,80,80.091,0.000000,1.056615,12.434,
12.2179,12.4348,12.1451,80,80.091,0.000000,1.056615,12.4348,
12.5113,12.4336,12.1448,80,80.087,0.000000,1.056615,12.4336,
12.8046,12.4359,12.1454,80,80.091,0.000000,1.056615,12.4359,
13.0979,12.4351,12.1448,80,80.087,0.000000,1.056615,12.4351,
13.3912,12.4355,12.1452,80,80.087,0.000000,1.056615,12.4355,
13.6846,12.4354,12.1449,80,80.087,0.000000,1.056615,12.4354,
13.9779,12.4354,12.1439,80,80.091,0.000000,1.056615,12.4354,
14.2713,12.4369,12.144,80,80.091,0.000000,1.056615,12.4369,
14.5646,12.4352,12.1433,80,80.087,0.000000,1.056615,12.4352,
14.8579,12.4349,12.1433,80,80.087,0.000000,1.056615,12.4349,
15.1512,12.4352,12.144,80,80.087,0.000000,1.056615,12.4352,
15.4446,12.435,12.1433,80,80.083,0.000000,1.056615,12.435,
15.7379,12.4355,12.1436,80,80.083,0.000000,1.056615,12.4355,
16.0312,12.4355,12.1434,80,80.083,0.000000,1.056615,12.4355,
16.3246,12.4365,12.1423,80,80.083,0.000000,1.056615,12.4365,
16.6179,12.4357,12.1426,80,80.083,0.000000,1.056615,12.4357,
16.9112,12.4356,12.1435,80,80.087,0.000000,1.056615,12.4356,
17.2046,12.4358,12.1421,80,80.083,0.000000,1.056615,12.4358,
17.4979,12.4354,12.1427,80,80.087,0.000000,1.056615,12.4354,
17.7913,12.4352,12.1426,80,80.083,0.000000,1.056615,12.4352,
18.0846,12.4358,12.1429,80,80.083,0.000000,1.056615,12.4358,
18.3779,12.4374,12.143,80,80.083,0.000000,1.056615,12.4374,
18.6713,12.4367,12.1422,80,80.087,0.000000,1.056615,12.4367,
18.9646,12.435,12.1421,80,80.083,0.000000,1.056615,12.435,
19.2579,12.4359,12.143,80,80.083,0.000000,1.056615,12.4359,
19.5512,12.4376,12.1429,80,80.079,0.000000,1.056615,12.4376,
19.8446,12.4363,12.1426,80,80.083,0.000000,1.056615,12.4363,
20.1379,12.4364,12.1424,80,80.079,0.000000,1.056615,12.4364,
20.4312,12.4371,12.1425,80,80.087,0.000000,1.056615,12.4371,
20.7246,12.4364,12.1421,80,80.083,0.000000,1.056615,12.4364,
21.0179,12.437,12.1418,80,80.083,0.000000,1.056615,12.437,
21.3113,12.4379,12.1426,80,80.083,0.000000,1.056615,12.4379,
21.6046,12.4374,12.1424,80,80.083,0.000000,1.056615,12.4374,
21.8979,12.4371,12.1418,80,80.083,0.000000,1.056615,12.4371,
22.1913,12.4379,12.1433,80,80.079,0.000000,1.056615,12.4379,
22.4846,12.4389,12.1422,80,80.083,0.000000,1.056615,12.4389,
22.7779,12.4393,12.1422,80,80.083,0.000000,1.056615,12.4393,
23.0712,12.4383,12.1415,80,80.083,0.000000,1.056615,12.4383,
23.3646,12.4376,12.1425,80,80.083,0.000000,1.056615,12.4376,
23.6579,12.4388,12.1415,80,80.083,0.000000,1.056615,12.4388,
23.9513,12.4378,12.1426,80,80.083,0.000000,1.056615,12.4378,
24.2446,12.4384,12.1417,80,80.079,0.000000,1.056615,12.4384,
24.5379,12.4379,12.1417,80,80.083,0.000000,1.056615,12.4379,
24.8313,12.4371,12.1417,80,80.083,0.000000,1.056615,12.4371,
25.1246,12.4373,12.1415,80,80.083,0.000000,1.056615,12.4373,
25.4179,12.4383,12.1415,80,80.079,0.000000,1.056615,12.4383,
25.7112,12.4386,12.1417,80,80.083,0.000000,1.056615,12.4386,
26.0046,12.4375,12.1419,80,80.079,0.000000,1.056615,12.4375,
26.2979,12.4364,12.1412,80,80.079,0.000000,1.056615,12.4364,
26.5912,12.4368,12.1415,80,80.087,0.000000,1.056615,12.4368,
26.8846,12.4364,12.143,80,80.083,0.000000,1.056615,12.4364,
27.1779,12.4376,12.1406,80,80.083,0.000000,1.056615,12.4376,
27.4713,12.4367,12.1417,80,80.079,0.000000,1.056615,12.4367,
27.7646,12.4357,12.1418,80,80.083,0.000000,1.056615,12.4357,
28.0579,12.4364,12.1415,80,80.083,0.000000,1.056615,12.4364,
28.3513,12.437,12.141,80,80.083,0.000000,1.056615,12.437,
28.6446,12.4359,12.142,80,80.083,0.000000,1.056615,12.4359,
28.9379,12.4363,12.1419,80,80.083,0.000000,1.056615,12.4363,
29.2312,12.436,12.1412,80,80.075,0.000000,1.056615,12.436,
29.5246,12.4359,12.1416,80,80.079,0.000000,1.056615,12.4359,
29.8179,12.4363,12.1419,80,80.083,0.000000,1.056615,12.4363,
30.1112,12.4379,12.1415,80,80.079,0.000000,1.056615,12.4379,
30.4046,12.4372,12.1415,80,80.079,0.000000,1.056615,12.4372,
30.6979,12.4364,12.1415,80,80.075,0.000000,1.056615,12.4364,
30.9913,12.4365,12.1408,80,80.075,0.000000,1.056615,12.4365,
31.2846,12.4364,12.1408,80,80.079,0.000000,1.056615,12.4364,
31.5779,12.4369,12.1408,80,80.075,0.000000,1.056615,12.4369,
31.8712,12.4364,12.1418,80,80.079,0.000000,1.056615,12.4364,
32.1646,12.4354,12.1406,80,80.079,0.000000,1.056615,12.4354,
32.4579,12.4356,12.1415,80,80.075,0.000000,1.056615,12.4356,
32.7512,12.4373,12.1409,80,80.083,0.000000,1.056615,12.4373,
33.0446,12.4368,12.1404,80,80.075,0.000000,1.056615,12.4368,
33.3379,12.4363,12.1408,80,80.079,0.000000,1.056615,12.4363,
33.6313,12.4359,12.1414,80,80.079,0.000000,1.056615,12.4359,
33.9246,12.4352,12.1411,80,80.079,0.000000,1.056615,12.4352,
34.2179,12.4361,12.1399,80,80.079,0.000000,1.056615,12.4361,
34.5112,12.4363,12.1397,80,80.083,0.000000,1.056615,12.4363,
34.8046,12.4361,12.1402,80,80.079,0.000000,1.056615,12.4361,
35.0979,12.436,12.1403,80,80.079,0.000000,1.056615,12.436,
35.3912,12.4357,12.141,80,80.079,0.000000,1.056615,12.4357,
35.6846,12.4351,12.1404,80,80.079,0.000000,1.056615,12.4351,
35.9779,12.4355,12.14,80,80.075,0.000000,1.056615,12.4355,
36.2713,12.4361,12.1405,80,80.079,0.000000,1.056615,12.4361,
36.5646,12.4348,12.1407,80,80.079,0.000000,1.056615,12.4348,
36.8579,12.4334,12.1406,80,80.079,0.000000,1.056615,12.4334,
37.1512,12.4337,12.1402,80,80.079,0.000000,1.056615,12.4337,
37.4446,12.4341,12.1407,80,80.075,0.000000,1.056615,12.4341,
37.7379,12.4344,12.1408,80,80.079,0.000000,1.056615,12.4344,
37.9312,12.4346,12.141,80,80.079,0.000000,1.056615,12.4346,

File: crystal 90 deg.csv
Time,Unsubtracted Heat Flow,Baseline Heat Flow,Program Temperature,Sample Temperature,Approx. Gas Flow,Heat Flow Calibration,Uncorrected Heat Flow,
0.000000,10.4462,0.224742,30.016,30.07,0.000000,1.056615,10.4462,
0.000417,10.4409,0.287188,30.058,30.07,0.000000,1.056615,10.4409,
0.000833,10.438,0.355974,30.095,30.07,0.000000,1.056615,10.438,
0.001250,10.4402,0.430676,30.137,30.07,0.000000,1.056615,10.4402,
0.001667,10.4498,0.509711,30.175,30.07,0.000000,1.056615,10.4498,
0.002083,10.4677,0.593395,30.216,30.07,0.000000,1.056615,10.4677,
0.002500,10.4947,0.680355,30.258,30.066,0.000000,1.056615,10.4947,
0.002917,10.5304,0.770695,30.295,30.066,0.000000,1.056615,10.5304,
0.003333,10.5752,0.863255,30.337,30.066,0.000000,1.056615,10.5752,
0.003750,10.6274,0.957822,30.375,30.07,0.000000,1.056615,10.6274,
0.004167,10.6872,1.053551,30.416,30.07,0.000000,1.056615,10.6872,
0.004583,10.7536,1.150760,30.454,30.07,0.000000,1.056615,10.7536,
0.005000,10.8258,1.247968,30.495,30.07,0.000000,1.056615,10.8258,
0.005417,10.9027,1.346128,30.537,30.066,0.000000,1.056615,10.9027,
0.005833,10.984,1.443970,30.575,30.07,0.000000,1.056615,10.984,
0.006250,11.0695,1.541390,30.616,30.075,0.000000,1.056615,11.0695,
0.006667,11.1579,1.638705,30.654,30.079,0.000000,1.056615,11.1579,
0.007083,11.2489,1.735068,30.695,30.079,0.000000,1.056615,11.2489,
0.007500,11.3415,1.829846,30.737,30.083,0.000000,1.056615,11.3415,
0.007917,11.4362,1.924096,30.775,30.083,0.000000,1.056615,11.4362,
0.008333,11.5312,2.016339,30.816,30.087,0.000000,1.056615,11.5312,
0.008750,11.6269,2.107102,30.854,30.091,0.000000,1.056615,11.6269,
0.009167,11.7234,2.195435,30.895,30.095,0.000000,1.056615,11.7234,
0.009583,11.8194,2.282289,30.933,30.104,0.000000,1.056615,11.8194,
0.010000,11.915,2.366079,30.975,30.116,0.000000,1.056615,11.915,
0.010417,12.0102,2.447649,31.016,30.12,0.000000,1.056615,12.0102,
0.010833,12.1045,2.526473,31.054,30.129,0.000000,1.056615,12.1045,
0.011250,12.1975,2.602338,31.095,30.141,0.000000,1.056615,12.1975,
0.011667,12.2892,2.674610,31.133,30.15,0.000000,1.056615,12.2892,
0.012083,12.3791,2.743713,31.175,30.158,0.000000,1.056615,12.3791,
0.012500,12.4672,2.809117,31.212,30.17,0.000000,1.056615,12.4672,
0.012917,12.553,2.870401,31.254,30.183,0.000000,1.056615,12.553,
0.013333,12.6368,2.927881,31.295,30.195,0.000000,1.056615,12.6368,
0.013750,12.7178,2.980500,31.333,30.208,0.000000,1.056615,12.7178,
0.014167,12.7961,3.028999,31.375,30.225,0.000000,1.056615,12.7961,
0.014583,12.8715,3.072743,31.412,30.237,0.000000,1.056615,12.8715,
0.015000,12.9437,3.111626,31.454,30.254,0.000000,1.056615,12.9437,
,