Folder: An-experimental-and-numerical-study-of-the-mechanical-response-of-3D-printed-semicrystalline-polymer/Raw_Data./Tensile Nozzle 0.4 mm/90 Degrees/LH0.2_90D_N0.4/Test Run 1 05-19-21 11 09 39 AM

File: DAQ- Crosshead, … - (Timed).csv
"File Path: G:\TT\8\Test Run 1 05-19-21 11 09 39 AM\DAQ- Crosshead, … - (Timed).csv   "
"Test: Robin_Tension_4_DIC_Signals 8"
"Test Run: Test Run 1"
"Date: 18/05/2021 15:14:19"
""
""
"Crosshead ","Load ","Time ","Strain 1 ","Strain 2 ","Strain 3 ","Strain 4 ","PoissonRatio "
"mm","kN","sec","mm/mm","mm/mm","mm/mm","mm/mm","%"
"0.000878906","-0.00338164","0.122","5.85716e-06","3.17415e-05","3.21166e-06","6.96044e-06","541.926"
"0.00449219","-0.00188477","0.322","1.85582e-05","4.59007e-06","5.97603e-06","8.06936e-06","24.7334"
"0.0104492","0.00688953","0.522","4.34549e-05","-1.54153e-05","3.91022e-05","3.50795e-05","-35.4742"
"0.017041","0.015189","0.722","8.28725e-05","-3.81247e-05","7.62231e-05","7.08827e-05","-46.004"
"0.0239746","0.0241935","0.922","0.000157447","-5.97129e-05","0.000142683","0.000140361","-37.9257"
"0.0318848","0.0370432","1.122","0.000202229","-0.00010479","0.000184875","0.000182632","-51.8175"
"0.0390137","0.045275","1.322","0.00027297","-0.000147745","0.000268489","0.000257691","-54.125"
"0.0462402","0.0558186","1.522","0.000349903","-0.000205936","0.000335743","0.000328484","-58.8552"
"0.052832","0.0635681","1.722","0.000388638","-0.000207562","0.000379887","0.000357104","-53.4075"
"0.0602051","0.073763","1.922","0.000420322","-0.000155311","0.000451386","0.000401326","-36.9505"
"0.0674805","0.0835765","2.122","0.000502632","-0.000190509","0.000490198","0.00047343","-37.9023"
"0.0744141","0.0942127","2.322","0.000590727","-0.000205673","0.000583698","0.000555103","-34.8169"
"0.0816406","0.102046","2.522","0.00065717","-0.000246413","0.000651882","0.000636488","-37.4961"
"0.0882813","0.11371","2.722","0.000755033","-0.000274396","0.000754617","0.000718383","-36.3423"
"0.0952148","0.120332","2.922","0.000810469","-0.000326346","0.000806299","0.000775879","-40.2663"
"0.102051","0.12889","3.122","0.000908203","-0.00036106","0.000902293","0.000852791","-39.7554"
"0.108643","0.135722","3.322","0.000948092","-0.000438432","0.000990003","0.000922449","-46.2436"
"0.11582","0.143539","3.522","0.000978935","-0.000438432","0.000990003","0.00103343","-44.7866"
"0.122949","0.156694","3.722","0.00108092","-0.000463865","0.00109024","0.00104452","-42.9139"
"0.129932","0.166578","3.922","0.0011164","-0.000539281","0.00114113","0.00109837","-48.3054"
"0.136377","0.17749","4.122","0.00118317","-0.000556449","0.00120547","0.0011636","-47.0304"
"0.142822","0.182926","4.322","0.00122985","-0.000595122","0.0012346","0.00120192","-48.3898"
"0.149707","0.189425","4.522","0.00129749","-0.000609981","0.00131686","0.00125174","-47.0124"
"0.156738","0.199927","4.722","0.00133549","-0.000636451","0.00135192","0.001316","-47.6567"
"0.16416","0.209976","4.922","0.00140794","-0.000646593","0.00142861","0.0013939","-45.9248"
"0.170313","0.218307","5.122","0.00147846","-0.000606221","0.00148967","0.00146007","-41.0035"
"0.176611","0.226467","5.322","0.00155442","-0.000634089","0.00156347","0.00152283","-40.7926"
"0.183203","0.235174","5.522","0.00158595","-0.000666688","0.00160565","0.00157757","-42.0371"
"0.18999","0.242409","5.722","0.00169044","-0.000702961","0.00170381","0.00167766","-41.5845"
"0.197607","0.250974","5.922","0.00175503","-0.000725452","0.00177149","0.00171135","-41.3356"
"0.204102","0.260868","6.122","0.0017814","-0.000748939","0.00179436","0.00177533","-42.0422"
"0.210303","0.265369","6.322","0.0018411","-0.000785415","0.00186423","0.00183427","-42.6601"
"0.216699","0.273949","6.522","0.00190721","-0.000832407","0.00193001","0.00189618","-43.6453"
"0.223193","0.283791","6.722","0.00197248","-0.000856316","0.00198853","0.00195338","-43.4132"
"0.230566","0.292951","6.922","0.0020473","-0.000912166","0.00205829","0.00201584","-44.5546"
"0.237256","0.296435","7.122","0.00211797","-0.000930726","0.0021485","0.00209245","-43.9442"
"0.243945","0.305112","7.322","0.00221107","-0.000969863","0.00223076","0.00214056","-43.864"
"0.250146","0.312124","7.522","0.0022452","-0.00099554","0.00228125","0.00221424","-44.3408"
"0.256543","0.319777","7.722","0.00233869","-0.00102337","0.00236195","0.0023012","-43.7583"
"0.263574","0.32913","7.922","0.00241808","-0.00104989","0.00244748","0.00238703","-43.4183"
"0.270117","0.334987","8.122","0.00248674","-0.00107248","0.00252892","0.00246482","-43.128"
"0.276953","0.344841","8.322","0.00253215","-0.00103107","0.0025677","0.00251888","-40.7192"
"0.283691","0.352667","8.522","0.00259808","-0.00105101","0.00264195","0.00258956","-40.4533"
"0.290186","0.359335","8.722","0.00262122","-0.00108377","0.00268191","0.00261522","-41.346"
"0.297119","0.36927","8.922","0.00267218","-0.00110942","0.00272124","0.00266189","-41.5174"
"0.303418","0.374969","9.122","0.00273829","-0.00112914","0.0027879","0.00272212","-41.2352"
"0.310059","0.38366","9.322","0.00283193","-0.00116437","0.00288329","0.0028104","-41.1158"
"0.316943","0.388496","9.522","0.00288182","-0.00121104","0.00293227","0.00286817","-42.0234"
"0.323828","0.397782","9.722","0.00296768","-0.00121344","0.00301551","0.0029466","-40.8885"
"0.330566","0.401725","9.922","0.00303209","-0.00127112","0.00308699","0.00301227","-41.9222"
"0.336768","0.413115","10.122","0.0031142","-0.0013204","0.00317399","0.00309443","-42.3993"
"0.343066","0.416126","10.322","0.00316633","-0.00134871","0.00320429","0.00314692","-42.5954"
"0.349902","0.423297","10.522","0.00320833","-0.0013643","0.00325319","0.00320333","-42.5237"
"0.356836","0.430138","10.722","0.00326351","-0.00141501","0.00331327","0.00327851","-43.3585"
"0.364209","0.440669","10.922","0.00330525","-0.00148389","0.00335647","0.0033183","-44.8949"
"0.370215","0.446299","11.122","0.00337289","-0.00145135","0.00341729","0.00336419","-43.0299"
"0.376514","0.452944","11.322","0.00343398","-0.00148018","0.00347813","0.00340451","-43.1039"
"0.383154","0.458768","11.522","0.0034839","-0.00141975","0.00352192","0.00347132","-40.7517"
"0.389893","0.464047","11.722","0.00357404","-0.00141563","0.00361305","0.00353806","-39.6087"
"0.397461","0.472534","11.922","0.0036743","-0.0014842","0.00372097","0.0036443","-40.3941"
"0.403955","0.47788","12.122","0.00377296","-0.00150275","0.00381568","0.00372716","-39.8295"
"0.410205","0.480377","12.322","0.00384405","-0.00151283","0.00388218","0.00378522","-39.3551"
"0.41665","0.48646","12.522","0.00391702","-0.00159419","0.00398185","0.00388751","-40.6991"
"0.423193","0.495014","12.722","0.00396854","-0.00162224","0.00402778","0.00393032","-40.8775"
"0.430566","0.503165","12.922","0.00401359","-0.00165372","0.00410304","0.00399955","-41.203"
"0.437256","0.511213","13.122","0.00407325","-0.00167421","0.0041296","0.00405225","-41.1026"
"0.444043","0.512597","13.322","0.0041429","-0.00170845","0.00422414","0.00415088","-41.238"
"0.450195","0.520648","13.522","0.00417895","-0.00174829","0.00425217","0.00418008","-41.8356"
"0.456738","0.525252","13.722","0.00425509","-0.00177842","0.00432845","0.00424254","-41.7951"
"0.463818","0.532301","13.922","0.00433103","-0.00180766","0.00440564","0.00432503","-41.7374"
"0.47041","0.537542","14.122","0.00440824","-0.00179226","0.00448119","0.00436958","-40.657"
"0.477295","0.543378","14.322","0.00444635","-0.00176699","0.00458577","0.00442909","-39.7402"
"0.483984","0.552676","14.522","0.00453963","-0.00179087","0.00462017","0.00453662","-39.4497"
"0.49043","0.555683","14.722","0.00462112","-0.00179489","0.00469057","0.00462809","-38.841"
"0.497314","0.559789","14.922","0.00467235","-0.00178961","0.00474729","0.00467763","-38.3021"
"0.503613","0.564154","15.122","0.00472672","-0.00182806","0.0047972","0.00473843","-38.675"
"0.510205","0.57195","15.322","0.0047665","-0.00185821","0.00484069","0.00479117","-38.9848"
"0.517139","0.574978","15.522","0.00483215","-0.00191825","0.00489451","0.00482838","-39.6977"
"0.523975","0.580263","15.722","0.00484673","-0.00191865","0.00495757","0.00486182","-39.5865"
"0.530762","0.586832","15.922","0.00495041","-0.00195078","0.00502732","0.00494896","-39.4064"
"0.536963","0.59105","16.122","0.00503345","-0.00199386","0.00510054","0.00501028","-39.6122"
"0.543213","0.59642","16.322","0.00510155","-0.00202689","0.00516811","0.0050718","-39.7309"
"0.550049","0.601967","16.522","0.00522312","-0.00205052","0.00526896","0.00516136","-39.2585"
"0.556885","0.606132","16.722","0.00529543","-0.0020684","0.00534782","0.00524329","-39.0601"
"0.564307","0.613135","16.922","0.00538707","-0.00207782","0.00545838","0.00533592","-38.5705"
"0.570264","0.616286","17.122","0.00542183","-0.0021005","0.00549149","0.00537431","-38.7415"
"0.576514","0.620414","17.322","0.0054636","-0.0021237","0.00553218","0.00544929","-38.87"
"0.583154","0.623213","17.522","0.00552346","-0.00205055","0.00559894","0.00551499","-37.1244"
"0.589941","0.0534071","17.722","0.00558081","-0.00205731","0.00564723","0.00557642","-36.864"
"0.590137","0.0100546","17.727","0.00558081","-0.00205731","0.00564723","0.00557642","-36.864"