Folder: An-experimental-and-numerical-study-of-the-mechanical-response-of-3D-printed-semicrystalline-polymer/Raw_Data./Tensile Nozzle 0.4 mm/90 Degrees/LH0.2_90D_N0.4/Test Run 2 05-19-21 11 09 39 AM

File: DAQ- Crosshead, … - (Timed).csv
"File Path: G:\TT\8\Test Run 2 05-19-21 11 09 39 AM\DAQ- Crosshead, … - (Timed).csv   "
"Test: Robin_Tension_4_DIC_Signals 8"
"Test Run: Test Run 2"
"Date: 18/05/2021 15:16:03"
""
""
"Crosshead ","Load ","Time ","Strain 1 ","Strain 2 ","Strain 3 ","Strain 4 ","PoissonRatio "
"mm","kN","sec","mm/mm","mm/mm","mm/mm","mm/mm","%"
"0.00078125","0.00646808","0.112","-3.07411e-05","6.14694e-06","-4.11508e-05","-3.94833e-05","-19.9958"
"0.00449219","0.0102903","0.312","-2.37412e-05","-9.32393e-06","-1.23623e-05","-2.3983e-05","39.2732"
"0.0105469","0.015659","0.512","-2.75019e-05","-1.44867e-05","1.98236e-05","1.78832e-06","52.6753"
"0.0171875","0.0262383","0.712","4.45938e-05","-2.59061e-05","7.0476e-05","6.58094e-05","-58.0935"
"0.0241699","0.0348415","0.912","0.000116624","-4.80369e-05","0.000138539","0.000135462","-41.1895"
"0.0320313","0.0493052","1.112","0.000207708","-5.67619e-05","0.000223721","0.00021515","-27.3277"
"0.0391602","0.060146","1.312","0.000335071","-5.10127e-05","0.00033439","0.000325341","-15.2244"
"0.0463867","0.0650327","1.512","0.00037037","-8.51349e-05","0.000375124","0.000360334","-22.9864"
"0.0529785","0.0773332","1.712","0.000393115","-9.41591e-05","0.000440454","0.000385381","-23.952"
"0.0603027","0.0846766","1.912","0.000464793","-0.000143528","0.000495775","0.000459351","-30.88"
"0.0675781","0.0950037","2.112","0.000577573","-4.91727e-05","0.000602589","0.000593572","-8.51368"
"0.0744629","0.105402","2.312","0.000688777","-5.08475e-05","0.000707699","0.00067569","-7.38229"
"0.0817383","0.115798","2.512","0.000769096","-8.69617e-05","0.000794544","0.000781436","-11.307"
"0.0883301","0.123868","2.712","0.000876425","-8.70838e-05","0.000892919","0.000858629","-9.93625"
"0.0952637","0.130697","2.912","0.000959848","-8.78665e-05","0.000980849","0.000943959","-9.15421"
"0.1021","0.141711","3.112","0.00101165","-8.82639e-05","0.0010455","0.000990258","-8.72475"
"0.108643","0.150145","3.312","0.00110508","-0.000145306","0.00113645","0.00107844","-13.1489"
"0.11582","0.156462","3.512","0.00118049","-0.000132552","0.00118601","0.00114843","-11.2286"
"0.1229","0.169015","3.712","0.00118186","-0.000167786","0.00118597","0.00115485","-14.1968"
"0.129932","0.177908","3.912","0.00137053","-0.000197378","0.00136986","0.00132756","-14.4016"
"0.136377","0.184732","4.112","0.00140674","-0.0001821","0.00142235","0.00138522","-12.9448"
"0.142725","0.194983","4.312","0.00148349","-0.000237788","0.00149971","0.00146617","-16.029"
"0.149609","0.206069","4.512","0.0014999","-0.000206801","0.00154031","0.00148753","-13.7877"
"0.156689","0.21491","4.712","0.00159411","-0.000243461","0.00164941","0.00157609","-15.2725"
"0.16416","0.220973","4.912","0.00169093","-0.000243671","0.00170498","0.00166649","-14.4105"
"0.170264","0.23018","5.112","0.00178321","-0.000246219","0.00178953","0.00175664","-13.8076"
"0.176563","0.237361","5.312","0.00183608","-0.000209335","0.00185444","0.00182382","-11.4012"
"0.183154","0.248778","5.512","0.00189404","-0.000212092","0.00191288","0.00189156","-11.1979"
"0.189941","0.253325","5.712","0.00195514","-0.000217384","0.00197565","0.00196092","-11.1186"
"0.19751","0.265636","5.912","0.0020138","-0.000209932","0.00203741","0.0020081","-10.4247"
"0.204053","0.275156","6.112","0.00207063","-0.000245208","0.00211268","0.00206393","-11.8422"
"0.210205","0.283209","6.312","0.0021456","-0.000299083","0.00213924","0.00211904","-13.9394"
"0.21665","0.288387","6.512","0.00222416","-0.000299611","0.00221707","0.0021844","-13.4707"
"0.223145","0.296276","6.712","0.00225652","-0.000301558","0.00225853","0.00222135","-13.3639"
"0.230469","0.309212","6.912","0.00239868","-0.000355961","0.00238785","0.00234924","-14.8399"
"0.237207","0.314697","7.112","0.00244741","-0.000318296","0.00246021","0.00240979","-13.0054"
"0.243896","0.325203","7.312","0.00254867","-0.000378833","0.00254738","0.00247659","-14.8639"
"0.250098","0.330587","7.512","0.00259153","-0.000386565","0.00263702","0.00253592","-14.9165"
"0.256494","0.338519","7.712","0.00266979","-0.000387743","0.00266244","0.00260831","-14.5234"
"0.263477","0.347379","7.912","0.00274925","-0.000412816","0.00274725","0.00269081","-15.0156"
"0.270068","0.354304","8.112","0.00285478","-0.000383623","0.0028374","0.00278948","-13.4379"
"0.276904","0.358517","8.312","0.00294888","-0.000336309","0.00293829","0.0028818","-11.4046"
"0.283691","0.369721","8.512","0.00299184","-0.000314733","0.00297737","0.00292627","-10.5197"
"0.290088","0.373725","8.712","0.00305091","-0.000333711","0.00307023","0.00298645","-10.9381"
"0.297021","0.384178","8.912","0.0030996","-0.000339719","0.00309631","0.00302647","-10.9601"
"0.303369","0.392572","9.112","0.00320859","-0.000349997","0.00321442","0.00314988","-10.9081"
"0.309961","0.39766","9.312","0.00325554","-0.00038067","0.00326466","0.00319448","-11.693"
"0.316943","0.409066","9.512","0.00333337","-0.000415383","0.00333979","0.00328016","-12.4614"
"0.323828","0.413091","9.712","0.00340787","-0.00042146","0.00341608","0.00334724","-12.3673"
"0.330566","0.42147","9.912","0.00345063","-0.000428129","0.00345823","0.00341698","-12.4073"
"0.336768","0.428207","10.112","0.00352498","-0.000411396","0.00362525","0.00350096","-11.6709"
"0.343066","0.436326","10.312","0.00359717","-0.000471792","0.00359236","0.00356031","-13.1156"
"0.349902","0.44496","10.512","0.00365566","-0.000494608","0.00366219","0.00362533","-13.5299"
"0.356836","0.451807","10.712","0.0037067","-0.000490154","0.00370535","0.0036755","-13.2235"
"0.36416","0.460064","10.912","0.00378249","-0.000510994","0.00377216","0.00373389","-13.5095"
"0.370166","0.463563","11.112","0.00383945","-0.000509375","0.0038522","0.00382396","-13.2669"
"0.376465","0.467785","11.312","0.00395037","-0.00054077","0.00395497","0.00389863","-13.6891"
"0.383105","0.476226","11.512","0.00399458","-0.000509161","0.00397294","0.00393141","-12.7463"
"0.389893","0.480954","11.712","0.00408441","-0.000488194","0.00407368","0.00400588","-11.9526"
"0.397461","0.492203","11.912","0.00415513","-0.000484311","0.0041567","0.00409175","-11.6557"
"0.403906","0.501838","12.112","0.00427405","-0.000517001","0.00427559","0.00420768","-12.0963"
"0.410156","0.505277","12.312","0.00432135","-0.000537599","0.00431366","0.00425817","-12.4405"
"0.416602","0.512012","12.512","0.00437454","-0.000526654","0.00437387","0.00431509","-12.0391"
"0.423145","0.520217","12.712","0.00444651","-0.00053428","0.00442363","0.00435142","-12.0157"
"0.430518","0.525349","12.912","0.00447392","-0.000545387","0.00452062","0.0044254","-12.1904"
"0.437207","0.530299","13.112","0.00457122","-0.000593016","0.00455799","0.00449539","-12.9728"
"0.443994","0.536774","13.312","0.00464572","-0.000546603","0.00464114","0.0045687","-11.7657"
"0.450195","0.545791","13.512","0.00477823","-0.000558292","0.00476811","0.00468257","-11.6841"
"0.456738","0.54944","13.712","0.00478957","-0.000629285","0.00478818","0.00470902","-13.1387"
"0.463818","0.554538","13.912","0.00494744","-0.000613945","0.00493944","0.00482764","-12.4093"
"0.47041","0.563785","14.112","0.00500311","-0.000603888","0.00500811","0.00488878","-12.0703"
"0.477246","0.569579","14.312","0.0050336","-0.00062057","0.00505667","0.00495798","-12.3286"
"0.483984","0.577164","14.512","0.00508106","-0.000632488","0.00509215","0.00502991","-12.448"
"0.490381","0.584397","14.712","0.00517489","-0.000594019","0.00519093","0.00513223","-11.4789"
"0.497266","0.588109","14.912","0.00527681","-0.000551128","0.00528231","0.00522098","-10.4443"
"0.503564","0.593857","15.112","0.00530243","-0.000583504","0.00531556","0.00526465","-11.0045"
"0.510107","0.598641","15.312","0.00538305","-0.000581948","0.00539501","0.0053478","-10.8107"
"0.51709","0.607208","15.512","0.00540916","-0.000605552","0.00541964","0.00537278","-11.1949"
"0.523926","0.613502","15.712","0.00547584","-0.000623869","0.00548771","0.00540952","-11.3931"
"0.530664","0.615911","15.912","0.00551148","-0.000609982","0.00550709","0.00543574","-11.0675"
"0.536865","0.620777","16.112","0.00563445","-0.000636317","0.00563014","0.0055502","-11.2933"
"0.543115","0.62805","16.312","0.00570817","-0.000631994","0.00569761","0.00560949","-11.0717"
"0.549951","0.63427","16.512","0.00578853","-0.000634226","0.00577644","0.00569101","-10.9566"
"0.556836","0.640217","16.712","0.00585787","-0.000668565","0.00584905","0.0057647","-11.4131"
"0.564209","0.645388","16.912","0.00589625","-0.000674806","0.00591194","0.00581068","-11.4447"
"0.570215","0.65055","17.112","0.00596257","-0.00066732","0.00598419","0.0058676","-11.1918"
"0.576514","0.653934","17.312","0.00602568","-0.000660864","0.00601622","0.00593877","-10.9675"
"0.583105","0.661127","17.512","0.00612245","-0.000642653","0.00610078","0.00601772","-10.4967"
"0.589844","0.664654","17.712","0.00616647","-0.000677862","0.00614139","0.00605591","-10.9927"
"0.597412","0.671626","17.912","0.0062384","-0.000674729","0.00621702","0.00610693","-10.8157"
"0.603809","0.677302","18.112","0.00628578","-0.000634532","0.00627443","0.00615184","-10.0947"
"0.61001","0.683681","18.312","0.0063639","-0.000651466","0.00635374","0.00621355","-10.2369"
"0.616455","0.685511","18.512","0.00644995","-0.000622038","0.00645845","0.00628199","-9.64407"
"0.622998","0.688215","18.712","0.00655952","-0.000637436","0.00655047","0.00639212","-9.71772"
"0.630469","0.695211","18.912","0.00661009","-0.000651596","0.00659401","0.00644034","-9.8576"
"0.637207","0.70086","19.112","0.00667626","-0.00066239","0.00667414","0.00655015","-9.92157"
"0.643994","0.708037","19.312","0.00676288","-0.000688584","0.00675879","0.00665387","-10.1818"
"0.650195","0.711423","19.512","0.00681927","-0.000691596","0.00680898","0.00671184","-10.1418"
"0.656689","0.715052","19.712","0.00686095","-0.000680796","0.00686257","0.0067667","-9.92277"
"0.663672","0.720342","19.912","0.00690863","-0.000685206","0.00692357","0.00681283","-9.91812"
"0.670166","0.724031","20.112","0.00699336","-0.00065412","0.00696302","0.00685871","-9.35344"
"0.677051","0.727734","20.312","0.00702761","-0.000722237","0.00698802","0.0068785","-10.2771"
"0.683789","0.733176","20.512","0.0071171","-0.000691847","0.0070645","0.00694623","-9.72091"
"0.690137","0.735044","20.712","0.0071963","-0.000673828","0.00714375","0.00701032","-9.36353"
"0.69502","-0.00270783","20.851","0.00724242","-0.000651648","0.0071683","0.00701282","-8.99766"