Folder: An-experimental-and-numerical-study-of-the-mechanical-response-of-3D-printed-semicrystalline-polymer/Raw_Data./Tensile Nozzle 0.4 mm/90 Degrees/LH0.2_90D_N0.4/Test Run 5 05-19-21 11 09 39 AM

File: DAQ- Crosshead, … - (Timed).csv
"File Path: G:\TT\8\Test Run 5 05-19-21 11 09 39 AM\DAQ- Crosshead, … - (Timed).csv   "
"Test: Robin_Tension_4_DIC_Signals 8"
"Test Run: Test Run 5"
"Date: 18/05/2021 15:20:43"
""
""
"Crosshead ","Load ","Time ","Strain 1 ","Strain 2 ","Strain 3 ","Strain 4 ","PoissonRatio "
"mm","kN","sec","mm/mm","mm/mm","mm/mm","mm/mm","%"
"0.000830078","0.000479894","0.115","-1.56074e-05","5.8446e-06","1.01605e-06","1.20455e-05","-37.4476"
"0.0046875","0.00752952","0.315","5.36099e-06","1.4702e-05","3.02221e-05","1.91938e-05","274.24"
"0.010791","0.0147995","0.515","5.73444e-05","-6.02531e-06","6.96356e-05","5.97542e-05","-10.5072"
"0.0174805","0.0234897","0.715","0.000127923","-4.58365e-05","0.000131894","0.000135105","-35.8313"
"0.0245117","0.0359547","0.915","0.000222266","-3.2759e-05","0.000220799","0.000217029","-14.7386"
"0.0324707","0.0442988","1.115","0.000310668","-6.38415e-05","0.000308825","0.00029414","-20.5498"
"0.0395508","0.0527672","1.315","0.0003806","-6.49231e-05","0.00037532","0.000339982","-17.0581"
"0.0467285","0.064259","1.515","0.000455866","-8.96965e-05","0.000465721","0.000438715","-19.6761"
"0.0533203","0.07761","1.715","0.000484687","-9.34852e-05","0.000521956","0.000464803","-19.2877"
"0.0606445","0.083953","1.915","0.000573513","-0.000114401","0.000595775","0.000554115","-19.9474"
"0.0678711","0.0933341","2.115","0.000670054","-0.000118216","0.000666342","0.000645356","-17.6428"
"0.0747559","0.104238","2.315","0.000742299","-0.000125921","0.000737347","0.00071437","-16.9636"
"0.0819336","0.116126","2.515","0.000840458","-0.00014539","0.000841401","0.000764955","-17.2989"
"0.0884766","0.126345","2.715","0.00093219","-0.000171889","0.000934951","0.000876334","-18.4393"
"0.0954102","0.135825","2.915","0.000994684","-0.000177733","0.00102016","0.000978485","-17.8683"
"0.102197","0.143144","3.115","0.00106831","-0.000189075","0.00110543","0.00104949","-17.6985"
"0.108789","0.154831","3.315","0.00118569","-0.000213203","0.00120208","0.00116052","-17.9813"
"0.115967","0.163805","3.515","0.00123621","-0.00025271","0.0012403","0.00121909","-20.4423"
"0.122998","0.173756","3.715","0.00131228","-0.000268776","0.00131507","0.00130499","-20.4816"
"0.12998","0.18219","3.915","0.00137126","-0.000323329","0.00137512","0.00134059","-23.579"
"0.136426","0.19523","4.115","0.00147375","-0.000323743","0.00146557","0.00143129","-21.9673"
"0.142822","0.203772","4.315","0.00149509","-0.000330098","0.00154382","0.00148199","-22.0788"
"0.149707","0.210711","4.515","0.00158655","-0.00033418","0.00161466","0.00157614","-21.0633"
"0.156738","0.223003","4.715","0.00170576","-0.000358071","0.00173096","0.00169551","-20.9919"
"0.16416","0.235246","4.915","0.00177717","-0.000396128","0.00176975","0.00176654","-22.2898"
"0.170313","0.238775","5.115","0.00187541","-0.000384385","0.00186829","0.00187419","-20.4961"
"0.176563","0.252538","5.315","0.00193433","-0.000352044","0.00193813","0.00192987","-18.1998"
"0.183154","0.257257","5.515","0.00198815","-0.000348555","0.00199997","0.0019973","-17.5316"
"0.189941","0.268542","5.715","0.00202693","-0.000410921","0.00205311","0.00204909","-20.2731"
"0.197607","0.277812","5.915","0.00211632","-0.00037907","0.00214726","0.00214156","-17.9118"
"0.204102","0.287431","6.115","0.00218486","-0.000428895","0.00222887","0.00219007","-19.6303"
"0.210303","0.293906","6.315","0.00223054","-0.000471923","0.00222201","0.00222904","-21.1573"
"0.216699","0.301741","6.515","0.00231996","-0.000471256","0.00231653","0.00227081","-20.3131"
"0.223242","0.310207","6.715","0.00239652","-0.00050973","0.00239716","0.00237472","-21.2696"
"0.230566","0.319337","6.915","0.00246667","-0.000532068","0.00248245","0.00246799","-21.5703"
"0.237256","0.327765","7.115","0.00255044","-0.000559978","0.00257242","0.00253921","-21.9561"
"0.243994","0.334967","7.315","0.00264685","-0.000553721","0.0026668","0.00262911","-20.92"
"0.250146","0.345121","7.515","0.00271249","-0.000551889","0.00273607","0.0026966","-20.3462"
"0.256592","0.351983","7.715","0.00279039","-0.000547462","0.00279664","0.00279045","-19.6196"
"0.263525","0.36093","7.915","0.00285302","-0.000583167","0.00285805","0.00282831","-20.4403"
"0.270068","0.370196","8.115","0.0029262","-0.000522754","0.00292682","0.00289875","-17.8646"
"0.276953","0.377439","8.315","0.00295892","-0.000602905","0.00296737","0.00295185","-20.3758"
"0.283691","0.389474","8.515","0.00303436","-0.00061397","0.00305861","0.00303123","-20.2339"
"0.290137","0.391232","8.715","0.00312524","-0.000615551","0.00316062","0.00312143","-19.6961"
"0.29707","0.401482","8.915","0.00320916","-0.000633298","0.00323968","0.0032085","-19.7341"
"0.303418","0.407593","9.115","0.0033035","-0.000655314","0.00331973","0.00330961","-19.837"
"0.31001","0.418045","9.315","0.00338481","-0.00066036","0.00339302","0.00336077","-19.5095"
"0.316943","0.42689","9.515","0.0034767","-0.000707328","0.0034879","0.00346219","-20.3448"
"0.323877","0.434762","9.715","0.00351372","-0.00070401","0.00355183","0.00354339","-20.036"
"0.330615","0.444502","9.915","0.00358477","-0.000735972","0.00361781","0.00361651","-20.5305"
"0.336816","0.451943","10.115","0.00363686","-0.000735604","0.00367144","0.00367848","-20.2263"
"0.343115","0.459096","10.315","0.00369395","-0.000762002","0.0037145","0.00373948","-20.6284"
"0.349951","0.465156","10.515","0.00374076","-0.000774407","0.00375646","0.00378743","-20.7019"
"0.356885","0.474481","10.715","0.00381117","-0.00079759","0.00382555","0.00383909","-20.9277"
"0.364258","0.484286","10.915","0.00390691","-0.000812153","0.00392263","0.00389857","-20.7876"
"0.370215","0.486973","11.115","0.0039655","-0.000809217","0.00400173","0.00400207","-20.4064"
"0.376563","0.495962","11.315","0.00404478","-0.000748575","0.0040797","0.00407502","-18.5072"
"0.383154","0.499467","11.515","0.00412057","-0.000840166","0.00415487","0.00413481","-20.3896"
"0.389893","0.509429","11.715","0.00420494","-0.000847032","0.00424629","0.00424034","-20.1437"
"0.39751","0.518327","11.915","0.0042739","-0.000829469","0.00429721","0.00430953","-19.4078"
"0.403955","0.527328","12.115","0.00437121","-0.00085728","0.00438924","0.00438844","-19.612"
"0.410254","0.529712","12.315","0.00443835","-0.000863802","0.00445248","0.00445439","-19.4622"
"0.41665","0.538982","12.515","0.00448995","-0.000879147","0.00452753","0.0045279","-19.5803"
"0.423145","0.543082","12.715","0.00454679","-0.000892032","0.00459013","0.00457369","-19.6189"
"0.430566","0.551297","12.915","0.00462718","-0.000903844","0.0046605","0.0046485","-19.5334"
"0.437207","0.558129","13.115","0.00473541","-0.000937795","0.00477521","0.00475505","-19.8039"
"0.443994","0.56735","13.315","0.00480743","-0.000945147","0.00481891","0.00482318","-19.6601"
"0.450195","0.571963","13.515","0.00491874","-0.000929154","0.00493453","0.00487656","-18.8901"
"0.456787","0.580124","13.715","0.00498458","-0.000927711","0.00500625","0.00498918","-18.6116"
"0.463818","0.585085","13.915","0.00503908","-0.000941368","0.00509439","0.00509346","-18.6813"
"0.47041","0.593493","14.115","0.00510402","-0.000950134","0.00516441","0.0051664","-18.6154"
"0.477295","0.603939","14.315","0.00518561","-0.000962212","0.00525054","0.00527204","-18.5554"
"0.484033","0.608095","14.515","0.0052383","-0.000985947","0.00531383","0.00533245","-18.8219"
"0.49043","0.61543","14.715","0.00529371","-0.00099496","0.00533923","0.00539713","-18.7951"
"0.497314","0.621868","14.915","0.00534672","-0.00096741","0.00539579","0.00543094","-18.0935"
"0.503613","0.624826","15.115","0.00544031","-0.0010073","0.00548364","0.00550827","-18.5155"
"0.510156","0.630356","15.315","0.00547852","-0.00102173","0.00556105","0.00556727","-18.6497"
"0.517139","0.638002","15.515","0.00556973","-0.00104306","0.00562458","0.00565714","-18.7273"
"0.524023","0.642237","15.715","0.00566036","-0.00105122","0.00572153","0.00573819","-18.5716"
"0.530762","0.648174","15.915","0.00572819","-0.00107579","0.00579579","0.00581176","-18.7806"
"0.536963","0.65767","16.115","0.00582398","-0.00105681","0.00587421","0.00592649","-18.1458"
"0.543213","0.660339","16.315","0.00588791","-0.00105979","0.00594659","0.00597552","-17.9994"
"0.550049","0.66542","16.515","0.00596319","-0.00109484","0.00600985","0.00603238","-18.36"
"0.556934","0.675155","16.715","0.00600671","-0.00104572","0.006092","0.00612406","-17.4092"
"0.564307","0.680707","16.915","0.00612612","-0.00103788","0.00617921","0.00620817","-16.9419"
"0.570312","0.683426","17.115","0.00619114","-0.00103045","0.00627376","0.00626664","-16.6439"
"0.576611","0.689365","17.315","0.00629512","-0.00105759","0.00633252","0.00635007","-16.8002"
"0.583203","0.69705","17.515","0.00638596","-0.00107532","0.0064086","0.00643896","-16.8388"
"0.589941","0.700841","17.715","0.0064623","-0.00106962","0.00648698","0.00649373","-16.5517"
"0.597559","0.706167","17.915","0.00654849","-0.00106009","0.00658835","0.00657697","-16.1883"
"0.604004","0.714278","18.115","0.00660262","-0.00106336","0.0066832","0.00668159","-16.1051"
"0.610205","0.717458","18.315","0.00668729","-0.0010829","0.00677241","0.00679202","-16.1934"
"0.61665","0.720777","18.515","0.0067412","-0.00107115","0.00682377","0.00687356","-15.8896"
"0.623145","0.726172","18.715","0.00682359","-0.00109127","0.006928","0.00696452","-15.9926"
"0.630566","0.736878","18.915","0.00688192","-0.00110615","0.00696746","0.0070306","-16.0733"
"0.637305","0.739843","19.115","0.00696297","-0.00112831","0.00704616","0.00712305","-16.2044"
"0.644092","0.741988","19.315","0.00707525","-0.00109834","0.00716326","0.00717655","-15.5237"
"0.650244","0.747621","19.515","0.00712115","-0.00108999","0.00724166","0.007288","-15.3064"
"0.656787","0.752793","19.715","0.0072222","-0.00108456","0.00737108","0.00743224","-15.017"
"0.66377","0.756175","19.915","0.00732723","-0.00106036","0.00744818","0.00753921","-14.4715"
"0.670264","0.76369","20.115","0.00741528","-0.00101983","0.00753071","0.00760443","-13.7531"
"0.6771","0.764717","20.315","0.00744175","-0.00108143","0.00754988","0.00762063","-14.5319"
"0.68374","0.77127","20.515","0.00752693","-0.00102376","0.00765751","0.00772982","-13.6013"
"0.690137","0.771927","20.715","0.00759753","-0.00102519","0.00772642","0.00780904","-13.4937"
"0.697021","0.777332","20.915","0.00767621","-0.00101019","0.00783982","0.0079223","-13.16"
"0.699365","-0.0106921","20.982","0.00771277","-0.000997921","0.00788661","0.00795723","-12.9386"