Folder: An-experimental-and-numerical-study-of-the-mechanical-response-of-3D-printed-semicrystalline-polymer/Raw_Data./Tensile Nozzle 0.4 mm/0 Degrees/LH0.2_0D_N0.4/Test Run 3 05-19-21 11 18 29 AM

File: DAQ- Crosshead, … - (Timed).csv
"File Path: G:\TT\2\Test Run 3 05-19-21 11 18 29 AM\DAQ- Crosshead, … - (Timed).csv   "
"Test: Robin_Tension_4_DIC_Signals 2"
"Test Run: Test Run 3"
"Date: 18/05/2021 13:36:08"
""
""
"Crosshead ","Load ","Time ","Strain 1 ","Strain 2 ","Strain 3 ","Strain 4 ","PoissonRatio "
"mm","kN","sec","mm/mm","mm/mm","mm/mm","mm/mm","%"
"0.000292969","-0.0915046","0.113","-4.90101e-05","-5.85266e-05","-6.84755e-05","-3.37116e-06","119.417"
"0.0166016","-0.0746514","0.713","6.10131e-05","4.54093e-05","3.90267e-05","-5.81824e-05","74.4255"
"0.039209","-0.0501642","1.313","0.000286236","0.000274884","0.000223732","-0.000164789","96.034"
"0.0606445","-0.0285406","1.913","0.000450426","0.000447606","0.000438182","-0.000185581","99.3739"
"0.0815918","-0.0068995","2.513","0.000761937","0.000739529","0.000761491","-0.000237754","97.0591"
"0.101953","0.0143855","3.113","0.00102277","0.000952856","0.000970015","-0.000351077","93.1642"
"0.123242","0.0393959","3.713","0.00113407","0.0010988","0.00112807","-0.00050107","96.89"
"0.142969","0.0596879","4.313","0.00123983","0.00120226","0.00121861","-0.000598119","96.9697"
"0.163574","0.077322","4.913","0.00149733","0.00146768","0.00150045","-0.0005708","98.0198"
"0.183301","0.0958932","5.513","0.00187218","0.00182694","0.00180012","-0.000654691","97.5836"
"0.203564","0.120521","6.113","0.00204804","0.00201033","0.00205023","-0.00078771","98.1587"
"0.223779","0.138439","6.713","0.00209918","0.00206931","0.00211884","-0.000924324","98.5771"
"0.243359","0.159855","7.313","0.00227985","0.00219572","0.00224878","-0.000824092","96.3098"
"0.263379","0.179581","7.913","0.00255127","0.00250915","0.0025521","-0.000949971","98.3491"
"0.283447","0.197724","8.513","0.00288199","0.00281482","0.00287548","-0.00106505","97.6693"
"0.30332","0.217566","9.113","0.00301146","0.00298193","0.00303705","-0.00122543","99.0194"
"0.323828","0.235724","9.713","0.00311976","0.00306302","0.00314029","-0.00129058","98.1813"
"0.343164","0.25411","10.313","0.00332245","0.00325588","0.00335639","-0.00128164","97.9964"
"0.363477","0.271878","10.913","0.00360942","0.0035511","0.00364954","-0.00133935","98.3842"
"0.383203","0.290222","11.513","0.00380207","0.00372847","0.00382016","-0.00146504","98.0642"
"0.403564","0.305415","12.113","0.00400496","0.00394738","0.00403766","-0.00159384","98.5623"
"0.423926","0.327306","12.713","0.00423208","0.00412153","0.00423266","-0.00168738","97.3878"
"0.443457","0.344236","13.313","0.00441064","0.00433072","0.00446574","-0.00167304","98.188"
"0.463672","0.361854","13.913","0.00454295","0.00445959","0.00457542","-0.00178345","98.1651"
"0.483643","0.374809","14.513","0.00472488","0.00465864","0.00478854","-0.00189732","98.5981"
"0.503418","0.39086","15.113","0.00507182","0.00496688","0.00512495","-0.00201352","97.9309"
"0.524023","0.407622","15.713","0.00527776","0.00520691","0.00536175","-0.00191739","98.6576"
"0.543311","0.423129","16.313","0.00535146","0.00531514","0.00546622","-0.00207699","99.3213"
"0.563525","0.437461","16.913","0.00548438","0.00538681","0.00554157","-0.00219515","98.221"
"0.583203","0.451367","17.513","0.00576183","0.00566862","0.0058569","-0.00229377","98.3823"
"0.603516","0.467157","18.113","0.00609311","0.0060505","0.00618376","-0.00237882","99.3007"
"0.623926","0.482714","18.713","0.00621702","0.00618848","0.00638128","-0.00240679","99.5409"
"0.643604","0.496972","19.313","0.00630699","0.00625185","0.00642723","-0.00248712","99.1257"
"0.663672","0.514056","19.913","0.00651688","0.0063905","0.00660858","-0.00258003","98.0607"
"0.683545","0.529559","20.513","0.00680497","0.00671864","0.00694549","-0.00265262","98.7314"
"0.703271","0.539979","21.113","0.00703375","0.00697945","0.00717834","-0.00265727","99.228"
"0.72373","0.553741","21.713","0.00716418","0.00714777","0.00733898","-0.00276454","99.7709"
"0.743164","0.56915","22.313","0.00729465","0.00721765","0.00744925","-0.00289432","98.9444"
"0.763477","0.581422","22.913","0.00744713","0.00746808","0.0076954","-0.00296077","100.281"
"0.783301","0.592578","23.513","0.00770031","0.00768721","0.00790013","-0.00301009","99.8299"
"0.803613","0.608536","24.113","0.00788297","0.00787098","0.00809157","-0.00298136","99.8479"
"0.824072","0.621403","24.713","0.00803637","0.00807591","0.00831985","-0.00309665","100.492"
"0.843604","0.635109","25.313","0.00827913","0.00828891","0.00857051","-0.00321178","100.118"
"0.863574","0.646602","25.913","0.00843078","0.00842279","0.00870051","-0.00328581","99.9052"
"0.883496","0.658333","26.513","0.008599","0.00856735","0.00881331","-0.00333967","99.6319"
"0.90332","0.670826","27.113","0.0088033","0.00881177","0.00909661","-0.00338226","100.096"
"0.923926","0.687789","27.713","0.00907495","0.00911284","0.00939969","-0.0034517","100.418"
"0.942969","0.695931","28.313","0.00925586","0.00927235","0.00958084","-0.0035573","100.178"
"0.963428","0.71001","28.913","0.00942286","0.00936555","0.00967271","-0.00362156","99.3918"
"0.983203","0.720669","29.513","0.00949345","0.0094332","0.00976548","-0.00365112","99.3654"
"1.00352","0.736251","30.113","0.00980978","0.00980412","0.0101439","-0.00370663","99.9423"
"1.02388","0.746482","30.713","0.0101463","0.0100448","0.0103879","-0.00380841","98.9996"
"1.04336","0.758349","31.313","0.0102442","0.0101748","0.0105313","-0.00390208","99.3225"
"1.06353","0.772308","31.913","0.0103161","0.0102664","0.0105958","-0.00396775","99.5182"
"1.0835","0.784839","32.513","0.0105122","0.0104501","0.0108511","-0.00393791","99.4093"
"1.10342","0.795768","33.113","0.0108375","0.0107735","0.0111454","-0.00405551","99.4095"
"1.12407","0.805613","33.713","0.0110735","0.0109592","0.0113514","-0.00414744","98.9678"
"1.14355","0.820782","34.313","0.0111488","0.0110863","0.0114705","-0.00426156","99.4394"
"1.16392","0.830859","34.913","0.0113455","0.0112378","0.0116588","-0.00434742","99.0507"
"1.18359","0.842047","35.513","0.0115693","0.0113819","0.0118824","-0.0043669","98.3802"
"1.20356","0.853065","36.113","0.0117821","0.0116118","0.0120752","-0.004401","98.5546"
"1.22373","0.861438","36.713","0.0119397","0.0118314","0.0122692","-0.00456609","99.0929"
"1.24341","0.87336","37.313","0.0121373","0.0119619","0.012513","-0.00465272","98.5549"
"1.26353","0.885687","37.913","0.0123898","0.0121535","0.0127411","-0.00458807","98.0928"
"1.2834","0.896131","38.513","0.0125275","0.0123393","0.0128338","-0.00471673","98.4977"
"1.30337","0.905378","39.113","0.0126259","0.012482","0.0129441","-0.00486018","98.8603"
"1.32407","0.917607","39.713","0.0128869","0.0127119","0.013269","-0.00496327","98.642"
"1.34346","0.92572","40.313","0.0132019","0.0129675","0.0135722","-0.00503732","98.2245"
"1.36362","0.936332","40.913","0.0133322","0.0131274","0.0136642","-0.00503405","98.4639"
"1.38325","0.947785","41.513","0.0133727","0.0132255","0.0137089","-0.00513806","98.8993"
"1.40352","0.958204","42.113","0.0136039","0.0133614","0.0139672","-0.00525633","98.2174"
"1.42388","0.968247","42.713","0.0139019","0.0136187","0.0143069","-0.00534762","97.9629"
"1.44351","0.97917","43.313","0.0141728","0.0139419","0.0145068","-0.00526458","98.3708"
"1.46348","0.98646","43.913","0.014225","0.0140537","0.0145757","-0.00540465","98.7958"
"1.48345","0.999066","44.513","0.0143188","0.0140808","0.0147244","-0.00554498","98.3378"
"1.50342","1.00763","45.113","0.0145842","0.0143049","0.0150103","-0.00566416","98.0849"
"1.52393","1.01944","45.713","0.0148958","0.0146356","0.0152601","-0.00576145","98.2532"
"1.54321","1.02546","46.313","0.0150047","0.0148283","0.0154017","-0.0056802","98.8244"
"1.56343","1.035","46.913","0.0151149","0.0149103","0.0155664","-0.00583762","98.6464"
"1.5832","1.04702","47.513","0.0153062","0.0149897","0.0157521","-0.00596502","97.9322"
"1.60342","1.05352","48.113","0.0155513","0.0152858","0.0159619","-0.00607648","98.2928"
"1.62383","1.06445","48.713","0.0157654","0.0155229","0.0161604","-0.00617362","98.4618"
"1.64351","1.07337","49.313","0.0158949","0.0157054","0.0163654","-0.00614994","98.8078"
"1.66367","1.08238","49.913","0.0161059","0.0158228","0.0166138","-0.0062479","98.2423"
"1.68364","1.08905","50.513","0.0162478","0.0160088","0.0167323","-0.00636043","98.529"
"1.70347","1.09965","51.113","0.0163831","0.0161973","0.0168518","-0.00646635","98.8659"
"1.72402","1.10475","51.713","0.0165979","0.0163722","0.0170886","-0.00640428","98.6402"
"1.74336","1.11563","52.313","0.0168132","0.0165572","0.0173741","-0.00655496","98.4774"
"1.76367","1.12057","52.913","0.0170661","0.0168347","0.0175817","-0.00666656","98.6441"
"1.78335","1.12774","53.513","0.0171093","0.0169218","0.0176362","-0.00676287","98.9041"
"1.80347","1.13682","54.113","0.0172091","0.0170005","0.0177359","-0.00682635","98.7879"
"1.82388","1.14378","54.713","0.0174702","0.0172122","0.0180607","-0.00681792","98.5232"
"1.84351","1.15209","55.313","0.0178032","0.0175871","0.0183763","-0.00691708","98.7862"
"1.86362","1.16001","55.913","0.0179026","0.0177614","0.0184859","-0.00704676","99.2113"
"1.88345","1.16729","56.513","0.0179364","0.0177951","0.0185248","-0.00710513","99.2122"
"1.90332","1.1723","57.113","0.0180899","0.017853","0.0187022","-0.00705146","98.6904"
"1.92393","1.17799","57.713","0.018291","0.0181361","0.0190336","-0.00716787","99.1531"
"1.94331","1.18167","58.313","0.0185915","0.0184388","0.0192367","-0.00724779","99.1787"
"1.96362","1.1897","58.913","0.0186755","0.0185934","0.0193542","-0.00732678","99.5604"
"1.9832","1.18836","59.513","0.0187443","0.0186455","0.0193919","-0.00730082","99.4729"
"1.9894","-0.093728","59.673","0.0187515","0.0186812","0.0194236","-0.00734978","99.6251"