Folder: An-experimental-and-numerical-study-of-the-mechanical-response-of-3D-printed-semicrystalline-polymer/Raw_Data./Tensile Nozzle 0.4 mm/0 Degrees/LH0.2_0D_N0.4/Test Run 2 05-19-21 11 18 29 AM

File: DAQ- Crosshead, … - (Timed).csv
"File Path: G:\TT\2\Test Run 2 05-19-21 11 18 29 AM\DAQ- Crosshead, … - (Timed).csv   "
"Test: Robin_Tension_4_DIC_Signals 2"
"Test Run: Test Run 2"
"Date: 18/05/2021 13:33:06"
""
""
"Crosshead ","Load ","Time ","Strain 1 ","Strain 2 ","Strain 3 ","Strain 4 ","PoissonRatio "
"mm","kN","sec","mm/mm","mm/mm","mm/mm","mm/mm","%"
"0.000341797","-0.0808019","0.113","-5.09147e-05","-3.74085e-05","-4.63085e-05","-2.03752e-05","73.4729"
"0.0166992","-0.065917","0.713","6.21818e-05","4.62011e-05","4.90562e-05","-2.27769e-05","74.3"
"0.039209","-0.0431183","1.313","0.000202898","0.000161524","0.000162308","-0.00012392","79.6085"
"0.0606445","-0.0206654","1.913","0.000343826","0.000357379","0.000322633","-0.000240257","103.942"
"0.0815918","0.00181836","2.513","0.00057547","0.000553264","0.000531915","-0.000350352","96.1412"
"0.101953","0.0222851","3.113","0.00081216","0.000788663","0.000792533","-0.000414697","97.1069"
"0.123242","0.0479923","3.713","0.000919427","0.000948543","0.000940534","-0.000475088","103.167"
"0.142969","0.064025","4.313","0.000985421","0.00100993","0.000962392","-0.000554861","102.487"
"0.163574","0.0853252","4.913","0.00120266","0.00122286","0.00119247","-0.000707514","101.68"
"0.18335","0.105846","5.513","0.00150796","0.00149499","0.00144276","-0.000757059","99.1399"
"0.203613","0.126571","6.113","0.00173685","0.00173299","0.00170846","-0.000841587","99.7778"
"0.223828","0.147976","6.713","0.00178647","0.001802","0.00178152","-0.000884633","100.869"
"0.243408","0.163292","7.313","0.0018558","0.00187386","0.00180649","-0.000995966","100.973"
"0.263428","0.181544","7.913","0.00211589","0.00210329","0.00202227","-0.00111479","99.4045"
"0.283447","0.202004","8.513","0.00244525","0.00240858","0.00237839","-0.00118923","98.5004"
"0.30332","0.21899","9.113","0.00262188","0.00264385","0.0025712","-0.0012505","100.838"
"0.323877","0.239726","9.713","0.00264027","0.00271526","0.00260055","-0.00127752","102.84"
"0.343213","0.255946","10.313","0.00278495","0.00280353","0.00274809","-0.00125888","100.667"
"0.363477","0.276453","10.913","0.00307864","0.00309157","0.00300117","-0.00151697","100.42"
"0.383252","0.290975","11.513","0.00334325","0.00333856","0.00327458","-0.00156639","99.8597"
"0.403613","0.308077","12.113","0.00345697","0.00352232","0.00337714","-0.00166385","101.89"
"0.423975","0.327885","12.713","0.00359492","0.00364204","0.00353321","-0.00167666","101.311"
"0.443506","0.343789","13.313","0.0037918","0.00384048","0.00376867","-0.00183398","101.284"
"0.463672","0.358637","13.913","0.00401445","0.00401571","0.00392072","-0.00188926","100.031"
"0.483691","0.377397","14.513","0.00421452","0.004227","0.00411911","-0.00201365","100.296"
"0.503467","0.394331","15.113","0.0044067","0.0044361","0.00430943","-0.00204318","100.667"
"0.524023","0.407463","15.713","0.00462","0.00465262","0.00454362","-0.00211145","100.706"
"0.543359","0.421042","16.313","0.00476573","0.00483415","0.004722","-0.00223985","101.436"
"0.563574","0.437999","16.913","0.00487027","0.00489755","0.00478803","-0.00232673","100.56"
"0.583252","0.451991","17.513","0.005093","0.00511812","0.00501255","-0.00235073","100.493"
"0.603564","0.466039","18.113","0.00544768","0.0054305","0.00528967","-0.00242517","99.6846"
"0.623975","0.479904","18.713","0.00558632","0.00563877","0.00549284","-0.00248549","100.939"
"0.643652","0.494404","19.313","0.00565099","0.00576311","0.00559586","-0.00265354","101.984"
"0.663721","0.506559","19.913","0.00577799","0.00584073","0.00566449","-0.00269922","101.086"
"0.683594","0.521352","20.513","0.00603095","0.00605401","0.00590432","-0.00277992","100.382"
"0.70332","0.535077","21.113","0.00638342","0.00640343","0.00624518","-0.00280051","100.313"
"0.723779","0.553668","21.713","0.00647716","0.00658273","0.00641891","-0.00293127","101.63"
"0.743213","0.563168","22.313","0.00650584","0.00664371","0.0064178","-0.00302961","102.119"
"0.763525","0.576443","22.913","0.00672972","0.00682012","0.0066495","-0.00311386","101.343"
"0.78335","0.589974","23.513","0.00699675","0.00701074","0.00685841","-0.00313691","100.2"
"0.803613","0.603949","24.113","0.00721972","0.00730333","0.00714647","-0.00316396","101.158"
"0.824121","0.616749","24.713","0.00734897","0.00747291","0.00725407","-0.00333975","101.686"
"0.843652","0.62714","25.313","0.00740834","0.0076271","0.00741689","-0.00339275","102.953"
"0.863623","0.641405","25.913","0.00759005","0.00780334","0.00761078","-0.00344002","102.81"
"0.883545","0.657456","26.513","0.00787622","0.00796654","0.0077996","-0.00347152","101.147"
"0.903369","0.66551","27.113","0.00805518","0.00817642","0.00798422","-0.0034735","101.505"
"0.923975","0.68156","27.713","0.00820704","0.00836853","0.00816365","-0.00364879","101.968"
"0.943018","0.691027","28.313","0.00836641","0.00863544","0.00837557","-0.00371867","103.216"
"0.963428","0.704401","28.913","0.00856239","0.00875591","0.00851059","-0.00374673","102.26"
"0.983252","0.716956","29.513","0.00872831","0.00887256","0.00865296","-0.00378177","101.653"
"1.00361","0.727694","30.113","0.00888727","0.00905037","0.00881934","-0.00394763","101.835"
"1.02393","0.740558","30.713","0.00918526","0.00936726","0.00913491","-0.00398598","101.981"
"1.04341","0.753188","31.313","0.00944063","0.00959557","0.00935546","-0.00401023","101.641"
"1.06357","0.762582","31.913","0.00948795","0.00960118","0.00936701","-0.00406543","101.193"
"1.08354","0.776846","32.513","0.00955859","0.00972519","0.00950655","-0.00407577","101.743"
"1.10347","0.788331","33.113","0.00984468","0.00995573","0.00976225","-0.00423815","101.128"
"1.12412","0.801116","33.713","0.0101994","0.0103027","0.0100755","-0.00431074","101.013"
"1.1436","0.811483","34.313","0.0103248","0.0104521","0.010184","-0.00434216","101.233"
"1.16396","0.821157","34.913","0.0103589","0.0105292","0.0102262","-0.00441133","101.644"
"1.18364","0.832285","35.513","0.0105288","0.010692","0.0104487","-0.00440183","101.55"
"1.20361","0.844785","36.113","0.0108823","0.0109509","0.0107568","-0.00458753","100.63"
"1.22378","0.854396","36.713","0.0110795","0.0111653","0.0109544","-0.00464011","100.774"
"1.24346","0.868327","37.313","0.011176","0.0113331","0.0110631","-0.00469789","101.406"
"1.26362","0.876103","37.913","0.0113084","0.0114723","0.0111706","-0.00470419","101.449"
"1.28345","0.888237","38.513","0.0115141","0.0116449","0.0113759","-0.00486866","101.136"
"1.30337","0.89867","39.113","0.0117443","0.0117588","0.0116104","-0.00493754","100.123"
"1.32412","0.909154","39.713","0.0119263","0.0120458","0.0117801","-0.00499291","101.002"
"1.34351","0.922119","40.313","0.0120908","0.0121414","0.0119541","-0.00509864","100.418"
"1.36367","0.926059","40.913","0.012312","0.0123372","0.0121639","-0.00510265","100.205"
"1.3833","0.937573","41.513","0.0124449","0.0124639","0.0122593","-0.00523414","100.153"
"1.40356","0.947585","42.113","0.0125971","0.0125974","0.0124236","-0.00530099","100.002"
"1.42388","0.960794","42.713","0.0128168","0.0128379","0.0126525","-0.00537241","100.165"
"1.44351","0.968463","43.313","0.0130898","0.0130582","0.0129119","-0.00543418","99.7586"
"1.46353","0.97754","43.913","0.0131965","0.0132567","0.013013","-0.00552943","100.456"
"1.4835","0.989219","44.513","0.013266","0.0133414","0.013096","-0.0056157","100.568"
"1.50347","0.998089","45.113","0.0134338","0.0134599","0.0133107","-0.00572036","100.194"
"1.52393","1.00729","45.713","0.0138002","0.0137302","0.0136485","-0.00578367","99.4928"
"1.54326","1.0134","46.313","0.0139953","0.0140465","0.0138268","-0.0058666","100.366"
"1.56348","1.02433","46.913","0.0140242","0.0141091","0.0138473","-0.00595172","100.605"
"1.5832","1.03285","47.513","0.0140947","0.0142596","0.0139473","-0.00605394","101.17"
"1.60347","1.04209","48.113","0.0143886","0.0144014","0.0142398","-0.00614069","100.089"
"1.62383","1.04984","48.713","0.0146605","0.0146695","0.0145048","-0.00620248","100.061"
"1.64351","1.05877","49.313","0.0147652","0.0149285","0.0145932","-0.00630428","101.106"
"1.66372","1.06559","49.913","0.0147768","0.0150382","0.0146462","-0.00638549","101.769"
"1.68369","1.07434","50.513","0.0148388","0.0151292","0.0148637","-0.00648313","101.957"
"1.70347","1.08184","51.113","0.0151511","0.015344","0.0151059","-0.00655227","101.273"
"1.72402","1.09021","51.713","0.0153397","0.0155336","0.0152015","-0.00661095","101.264"
"1.74336","1.09454","52.313","0.0154344","0.0157196","0.0152721","-0.00666049","101.848"
"1.76372","1.10186","52.913","0.0155429","0.0158445","0.0154319","-0.00672333","101.94"
"1.78345","1.10671","53.513","0.0156989","0.0159805","0.015649","-0.00677672","101.794"
"1.80352","1.11537","54.113","0.0158707","0.0160169","0.0158584","-0.00685101","100.921"
"1.82393","1.11732","54.713","0.0159487","0.0161611","0.0159887","-0.00699124","101.332"
"1.8436","0.817119","55.313","0.0156909","0.0160843","0.0160782","-0.00703563","102.507"
"1.86382","0.773922","55.913","NaN","0.015037","NaN","-0.00422351","NaN"
"1.88359","0.763069","56.513","NaN","0.0145609","NaN","-0.00384614","NaN"
"1.90337","0.749297","57.113","NaN","0.0142332","NaN","-0.00379071","NaN"
"1.92397","0.746442","57.713","NaN","0.0142883","NaN","-0.00336022","NaN"
"1.94336","0.743847","58.313","NaN","0.0140355","NaN","-0.00326833","NaN"
"1.96362","0.735599","58.913","NaN","0.0141319","NaN","-0.0035007","NaN"
"1.98325","0.736321","59.513","NaN","0.0140648","NaN","-0.00331159","NaN"
"2.00366","0.73194","60.113","NaN","0.014017","NaN","-0.00309449","NaN"
"2.02402","0.730356","60.713","NaN","0.0139218","NaN","-0.0030061","NaN"
"2.03638","-0.0505829","61.08","NaN","0.0138809","NaN","-0.00307766","NaN"