Folder: An-experimental-and-numerical-study-of-the-mechanical-response-of-3D-printed-semicrystalline-polymer/Raw_Data./Tensile Nozzle 0.4 mm/0 Degrees/LH0.2_0D_N0.4/Test Run 5 05-19-21 11 18 29 AM

File: DAQ- Crosshead, … - (Timed).csv
"File Path: G:\TT\2\Test Run 5 05-19-21 11 18 29 AM\DAQ- Crosshead, … - (Timed).csv   "
"Test: Robin_Tension_4_DIC_Signals 2"
"Test Run: Test Run 5"
"Date: 18/05/2021 13:41:45"
""
""
"Crosshead ","Load ","Time ","Strain 1 ","Strain 2 ","Strain 3 ","Strain 4 ","PoissonRatio "
"mm","kN","sec","mm/mm","mm/mm","mm/mm","mm/mm","%"
"0.000341797","-0.10787","0.113","-6.6261e-05","-7.67951e-05","-8.53485e-05","9.22837e-06","115.898"
"0.0132813","-0.0931923","0.613","-1.20532e-05","-1.74985e-05","-5.6624e-05","-3.59431e-05","145.177"
"0.0318848","-0.0766969","1.113","0.000140998","0.000138548","0.000109521","-0.000161002","98.2624"
"0.0493652","-0.0562615","1.613","0.00029104","0.000258812","0.000259826","-0.000198155","88.9266"
"0.0675781","-0.0369477","2.113","0.000429796","0.000424502","0.000415794","-0.000193449","98.7683"
"0.0847656","-0.020873","2.613","0.000666899","0.000626006","0.0006223","-0.000275161","93.8682"
"0.101904","-0.00419052","3.113","0.000911951","0.000859971","0.000867391","-0.000369903","94.3001"
"0.119824","0.0175042","3.613","0.0010401","0.000990257","0.000986123","-0.000516698","95.2079"
"0.136035","0.0334556","4.113","0.00109508","0.00108356","0.00109754","-0.000617323","98.948"
"0.153955","0.0551457","4.613","0.00117548","0.00113343","0.00116224","-0.000499227","96.4227"
"0.169922","0.0675405","5.113","0.00147537","0.00138865","0.00142695","-0.000609756","94.1222"
"0.187207","0.0847473","5.613","0.00174905","0.00166088","0.00173479","-0.000710363","94.959"
"0.203564","0.101705","6.113","0.00196198","0.00188562","0.0019365","-0.000832697","96.108"
"0.220117","0.120016","6.613","0.00202069","0.00190742","0.00197935","-0.000932001","94.3945"
"0.237207","0.135059","7.113","0.00204175","0.00198531","0.00201","-0.00103901","97.2357"
"0.253516","0.155692","7.613","0.00228847","0.00213246","0.00215926","-0.000968786","93.1828"
"0.270313","0.16868","8.113","0.00254365","0.00240051","0.00244034","-0.00104337","94.3727"
"0.286963","0.182971","8.613","0.00275304","0.00264367","0.00271367","-0.00112779","96.0273"
"0.30332","0.200849","9.113","0.00290127","0.00278486","0.00285102","-0.00123515","95.9876"
"0.320654","0.214417","9.613","0.00296023","0.00285213","0.00296381","-0.00134521","96.3483"
"0.336377","0.231855","10.113","0.00313111","0.00296551","0.00305235","-0.0013485","94.7111"
"0.354004","0.246925","10.613","0.00331961","0.00316444","0.00323485","-0.00134916","95.3257"
"0.369775","0.260698","11.113","0.00352542","0.00338932","0.00346766","-0.00146277","96.1395"
"0.387109","0.276511","11.613","0.00369578","0.00355707","0.00364434","-0.0015785","96.2468"
"0.403564","0.291659","12.113","0.00381906","0.00367729","0.00379082","-0.0016707","96.2878"
"0.420264","0.308373","12.613","0.00398546","0.00381947","0.00395495","-0.00173145","95.8351"
"0.437305","0.318922","13.113","0.00411887","0.00395174","0.00409604","-0.00169847","95.9423"
"0.45376","0.335287","13.613","0.00427443","0.00414234","0.00423916","-0.00178105","96.9098"
"0.470557","0.350224","14.113","0.00445731","0.0042983","0.00440827","-0.00188334","96.4326"
"0.487207","0.360443","14.613","0.00463777","0.00446195","0.00454033","-0.00196416","96.209"
"0.503418","0.373501","15.113","0.00487673","0.00466496","0.00479214","-0.00206636","95.6575"
"0.520801","0.387977","15.613","0.0050769","0.00488328","0.00503887","-0.00203544","96.1863"
"0.536475","0.402345","16.113","0.00517209","0.00501686","0.0051945","-0.002081","96.9987"
"0.554102","0.413669","16.613","0.00518399","0.00503171","0.00519874","-0.002203","97.0625"
"0.569873","0.426073","17.113","0.00535724","0.00514971","0.00530527","-0.00228596","96.1262"
"0.587158","0.440221","17.613","0.00565807","0.00539394","0.00556233","-0.00232101","95.3318"
"0.603516","0.452502","18.113","0.00592278","0.00569109","0.00584637","-0.00246017","96.0882"
"0.620215","0.466305","18.613","0.00605887","0.00587266","0.00603207","-0.00241024","96.9267"
"0.6375","0.477551","19.113","0.00611122","0.00594465","0.00614102","-0.00252782","97.2744"
"0.653906","0.491241","19.613","0.00619212","0.00598815","0.00618022","-0.00259725","96.706"
"0.670557","0.503399","20.113","0.00644544","0.00616617","0.0063623","-0.00270198","95.6672"
"0.687061","0.514415","20.613","0.00673702","0.00647172","0.00665436","-0.00274266","96.0621"
"0.703271","0.521447","21.113","0.00686186","0.00665906","0.00684813","-0.00284543","97.0445"
"0.720557","0.535496","21.613","0.00693725","0.00679299","0.00694059","-0.00282825","97.9205"
"0.736328","0.547848","22.113","0.0070593","0.00683639","0.00704245","-0.00292885","96.8423"
"0.754053","0.558038","22.613","0.00725611","0.00696673","0.00718867","-0.00299072","96.0119"
"0.769824","0.568813","23.113","0.00745396","0.00716291","0.00741593","-0.00311452","96.0954"
"0.787207","0.582341","23.613","0.00760047","0.00738102","0.00761523","-0.00314315","97.1127"
"0.803613","0.591647","24.113","0.00775643","0.0075215","0.00780746","-0.00313413","96.9712"
"0.820361","0.603356","24.613","0.00795709","0.00766899","0.00795415","-0.00319141","96.3793"
"0.8375","0.615149","25.113","0.00812139","0.00780538","0.00810031","-0.00327501","96.1089"
"0.853711","0.62482","25.613","0.00817817","0.00801728","0.0082931","-0.00336554","98.0327"
"0.87041","0.637158","26.113","0.00823472","0.00809675","0.0083773","-0.00345997","98.3245"
"0.887061","0.647285","26.613","0.0084549","0.00822713","0.00850804","-0.00346406","97.3061"
"0.90332","0.65864","27.113","0.00859275","0.00840215","0.00870612","-0.00347198","97.7818"
"0.920752","0.667368","27.613","0.00878612","0.00861992","0.00894165","-0.00355679","98.1084"
"0.936279","0.677161","28.113","0.0090171","0.00887333","0.00915611","-0.00359203","98.4056"
"0.953809","0.691157","28.613","0.00911637","0.00898584","0.00928326","-0.00365035","98.5682"
"0.969775","0.697678","29.113","0.00922129","0.00901003","0.00933435","-0.00370817","97.709"
"0.987109","0.710316","29.613","0.00931407","0.00911703","0.00940262","-0.00372513","97.8845"
"1.00352","0.719488","30.113","0.00959916","0.00939197","0.00973309","-0.00378986","97.8416"
"1.02017","0.732726","30.613","0.00985761","0.00965526","0.0100006","-0.00385718","97.9473"
"1.03721","0.742135","31.113","0.0100127","0.009827","0.0101707","-0.00393611","98.1454"
"1.05356","0.750597","31.613","0.0100434","0.00987997","0.0102571","-0.00398953","98.3728"
"1.07046","0.761204","32.113","0.0101931","0.00991602","0.0102813","-0.00404109","97.2817"
"1.08706","0.770528","32.613","0.0104148","0.0101311","0.0104346","-0.00403636","97.276"
"1.10342","0.779975","33.113","0.0106523","0.0103916","0.0107142","-0.0041402","97.5526"
"1.12085","0.789324","33.613","0.0108409","0.0105874","0.0109597","-0.00419143","97.6616"
"1.13667","0.800386","34.113","0.0109672","0.0107139","0.0110827","-0.00424848","97.6904"
"1.15459","0.811648","34.613","0.0110406","0.010759","0.0111667","-0.00430997","97.4494"
"1.17031","0.818076","35.113","0.0112165","0.0109073","0.0113043","-0.00431064","97.2433"
"1.18745","0.829594","35.613","0.0114065","0.0111113","0.0115197","-0.00436632","97.412"
"1.20352","0.839071","36.113","0.0116002","0.0113251","0.0116845","-0.00445248","97.6285"
"1.22007","0.845363","36.613","0.0117246","0.0114443","0.0118551","-0.00446432","97.6093"
"1.23716","0.856589","37.113","0.0118981","0.0115862","0.0120512","-0.00456729","97.3786"
"1.25356","0.864598","37.613","0.0120747","0.0117043","0.0122047","-0.00465071","96.9324"
"1.27036","0.873116","38.113","0.0122223","0.0117412","0.0123641","-0.00458474","96.0638"
"1.28691","0.883181","38.613","0.012285","0.0118756","0.0124368","-0.00466576","96.6675"
"1.30337","0.891744","39.113","0.0124276","0.0120308","0.0125865","-0.00476863","96.8071"
"1.32085","0.899118","39.613","0.0126976","0.0122229","0.0128044","-0.00487476","96.2615"
"1.33667","0.905356","40.113","0.0128696","0.012355","0.0130599","-0.00496554","96.0014"
"1.35435","0.913777","40.613","0.0130331","0.0125728","0.0132015","-0.00490011","96.4682"
"1.36992","0.923761","41.113","0.0130319","0.0126622","0.0132664","-0.00502096","97.1631"
"1.38721","0.932275","41.613","0.0131141","0.0127586","0.0133642","-0.00512183","97.2892"
"1.40352","0.938704","42.113","0.0133504","0.0128856","0.0136044","-0.00522839","96.5185"
"1.42017","0.948807","42.613","0.0136199","0.0131209","0.0138898","-0.00532885","96.3362"
"1.4373","0.956436","43.113","0.0137877","0.0133759","0.0140568","-0.00543863","97.0133"
"1.45366","0.962125","43.613","0.0138033","0.0134586","0.0141176","-0.00539298","97.5028"
"1.47036","0.973887","44.113","0.0138805","0.0135016","0.0141759","-0.00553865","97.2703"
"1.48701","0.981566","44.613","0.0140719","0.0136119","0.0142596","-0.00563584","96.7311"
"1.50342","0.989527","45.113","0.0143348","0.0138651","0.0145644","-0.0057297","96.7234"
"1.52075","0.995499","45.613","0.0144534","0.0141396","0.0147816","-0.00578731","97.8289"
"1.53643","1.00314","46.113","0.0144843","0.014259","0.0148407","-0.00578944","98.4445"
"1.554","1.01161","46.613","0.0145873","0.0142673","0.0149067","-0.00583648","97.8063"
"1.56978","1.0191","47.113","0.0146991","0.0143561","0.0150381","-0.0059134","97.6665"
"1.58706","1.0279","47.613","0.0148923","0.0145885","0.0152989","-0.00591766","97.96"
"1.60347","1.02996","48.113","0.0151036","0.0148345","0.0155215","-0.00594079","98.2183"
"1.62012","1.03661","48.613","0.0151817","0.0148348","0.0156455","-0.00587822","97.715"
"1.6373","1.04156","49.113","0.0151995","0.0148538","0.015824","-0.0060113","97.7256"
"1.65371","1.04352","49.613","0.0151187","0.0149834","0.0158993","-0.00608531","99.1051"
"1.67061","0.664463","50.113","0.0149972","0.0150807","0.0161365","-0.00616546","100.557"
"1.67441","0.494025","50.213","0.0147277","0.0148825","0.0160637","-0.00597462","101.051"
"1.67754","0.482876","50.313","NaN","NaN","NaN","NaN","NaN"
"1.68091","0.477601","50.413","NaN","0.0135487","NaN","NaN","NaN"
"1.68394","0.472127","50.513","NaN","0.0134345","NaN","NaN","NaN"
"1.68755","0.469244","50.613","NaN","0.0128827","NaN","NaN","NaN"
"1.69092","0.464207","50.713","NaN","0.0130548","NaN","NaN","NaN"
"1.69424","0.462195","50.813","NaN","0.0130018","NaN","NaN","NaN"
"1.69702","0.460919","50.913","NaN","0.0129175","NaN","NaN","NaN"
"1.70034","0.459426","51.013","NaN","0.0128075","NaN","NaN","NaN"
"1.70366","0.457935","51.113","NaN","0.012872","NaN","NaN","NaN"
"1.70728","0.456646","51.213","NaN","0.0129061","NaN","NaN","NaN"
"1.71055","0.454933","51.313","NaN","0.0127859","NaN","NaN","NaN"
"1.71416","0.45683","51.413","NaN","0.0128072","NaN","NaN","NaN"
"1.71738","0.454804","51.513","NaN","0.0128582","NaN","NaN","NaN"
"1.72095","0.45363","51.613","NaN","0.0126186","NaN","NaN","NaN"
"1.72417","0.453836","51.713","NaN","0.0126165","NaN","NaN","NaN"
"1.72749","0.451644","51.813","NaN","0.0126202","NaN","NaN","NaN"
"1.73032","0.447649","51.913","NaN","0.012553","NaN","NaN","NaN"
"1.73359","0.448974","52.013","NaN","0.0125451","NaN","NaN","NaN"
"1.73662","0.446981","52.113","NaN","0.0124824","NaN","NaN","NaN"
"1.74009","0.448678","52.213","NaN","0.0124367","NaN","NaN","NaN"
"1.74341","0.446434","52.313","NaN","0.012479","NaN","NaN","NaN"
"1.74702","0.447571","52.413","NaN","0.0124206","NaN","NaN","NaN"
"1.75039","0.44543","52.513","NaN","0.0124366","NaN","NaN","NaN"
"1.75425","0.44741","52.613","NaN","0.0124309","NaN","NaN","NaN"
"1.75771","0.443449","52.713","NaN","0.0124286","NaN","NaN","NaN"
"1.76104","0.441016","52.813","NaN","0.0124063","NaN","NaN","NaN"
"1.76372","0.443806","52.913","NaN","0.0123951","NaN","NaN","NaN"
"1.76689","0.440197","53.013","NaN","0.0124031","NaN","NaN","NaN"
"1.77007","0.441048","53.113","NaN","0.0123813","NaN","NaN","NaN"
"1.77358","0.441927","53.213","NaN","0.012333","NaN","NaN","NaN"
"1.77656","0.436374","53.313","NaN","0.0123216","NaN","NaN","NaN"
"1.77998","0.437651","53.413","NaN","0.012325","NaN","NaN","NaN"
"1.7834","0.43629","53.513","NaN","0.012318","NaN","NaN","NaN"
"1.78726","0.432772","53.613","NaN","0.0122948","NaN","NaN","NaN"
"1.78911","-0.043029","53.662","NaN","0.0122948","NaN","NaN","NaN"