Folder: An-experimental-and-numerical-study-of-the-mechanical-response-of-3D-printed-semicrystalline-polymer/Raw_Data./Tensile Nozzle 0.4 mm/0 Degrees/LH0.05_0D_N0.4

File: Test 1.csv
Crosshead ,Crosshead ini,Load ,Load ini,Time ,Strain 1 ,Strain 2 ,Strain 3 ,Strain 4 ,PoissonRatio ,,,
0,0.000341797,0,0.0256091,0.113,-0.000266158,-0.000279353,-0.000290072,-7.36E-05,104.958,-0.000341797,0.000341797,-0.0256091
0.0420898,0.0424316,0.0451965,0.0708056,1.413,0.000230204,0.00018516,0.000232108,-0.000235634,80.433,-0.000341797,-0.002764826,-0.0256091
0.0881348,0.0884766,0.0935356,0.119145,2.713,0.000961641,0.000948319,0.000963603,-0.000276447,98.6147,-0.000341797,-0.005059042,-0.0256091
0.132471,0.132813,0.141054,0.166663,4.013,0.00146598,0.00148221,0.001481,-0.000486126,101.107,-0.000341797,-0.008241162,-0.0256091
0.176172,0.176514,0.186633,0.212242,5.313,0.00204394,0.00206317,0.0020711,-0.000580056,100.941,-0.000341797,-0.0101193,-0.0256091
0.219775,0.220117,0.229626,0.255235,6.613,0.00254603,0.0025579,0.00258346,-0.000719333,100.466,-0.000341797,-0.009508457,-0.0256091
0.263086,0.263428,0.276393,0.302002,7.913,0.00297363,0.00300462,0.00299959,-0.000805384,101.042,-0.000341797,-0.0129652,-0.0256091
0.306592,0.306934,0.317507,0.343116,9.213,0.00350273,0.00349192,0.00355432,-0.000994915,99.6914,-0.000341797,-0.01057352,-0.0256091
0.349805,0.350146,0.359212,0.384821,10.513,0.00392557,0.00392952,0.00399343,-0.00103688,100.101,-0.000341797,-0.009065147,-0.0256091
0.394043,0.394385,0.397252,0.422861,11.813,0.00436586,0.00436444,0.00446415,-0.0012384,99.9675,-0.000341797,-0.002867141,-0.0256091
0.436963,0.437305,0.43994,0.465549,13.113,0.005,0.00504614,0.00510487,-0.00144014,100.923,-0.000341797,-0.002634973,-0.0256091
0.480322,0.480664,0.478816,0.504425,14.413,0.00524948,0.00530566,0.0053698,-0.00151931,101.07,-0.000341797,0.001847854,-0.0256091
0.523682,0.524023,0.516435,0.542044,15.713,0.00580982,0.00587766,0.00587996,-0.00169803,101.168,-0.000341797,0.007588735,-0.0256091
0.566357,0.566699,0.547562,0.573171,17.013,0.00607617,0.00616923,0.00623225,-0.00183317,101.532,-0.000341797,0.0191374,-0.0256091
0.609619,0.609961,0.58422,0.609829,18.313,0.00663675,0.00668573,0.00669644,-0.00197437,100.738,-0.000341797,0.0257414,-0.0256091
0.653564,0.653906,0.617325,0.642934,19.613,0.00697801,0.00711987,0.00715018,-0.00208591,102.033,-0.000341797,0.0365812,-0.0256091
0.696338,0.69668,0.650558,0.676167,20.913,0.00728451,0.00754019,0.00755168,-0.00224724,103.51,-0.000341797,0.0461215,-0.0256091
0.739502,0.739844,0.6825,0.708109,22.213,0.0078073,0.00797099,0.00802864,-0.00222652,102.097,-0.000341797,0.0573439,-0.0256091
0.78291,0.783252,0.713639,0.739248,23.513,0.00829799,0.00825001,0.00833894,-0.00251906,99.4218,-0.000341797,0.0696133,-0.0256091
0.827393,0.827734,0.745661,0.77127,24.813,0.00867471,0.00875833,0.00883973,-0.00263185,100.964,-0.000341797,0.0820738,-0.0256091
0.870117,0.870459,0.775782,0.801391,26.113,0.00920906,0.00930896,0.00943958,-0.00278324,101.085,-0.000341797,0.0946772,-0.0256091
0.913623,0.913965,0.803774,0.829383,27.413,0.00944885,0.00954179,0.00964263,-0.00290973,100.984,-0.000341797,0.110191,-0.0256091
0.957031,0.957373,0.835734,0.861343,28.713,0.0100586,0.00996443,0.010274,-0.00303279,99.0638,-0.000341797,0.121639,-0.0256091
1.00024,1.00059,0.862935,0.888544,30.013,0.0103327,0.0104146,0.0105677,-0.00320698,100.793,-0.000341797,0.137651,-0.0256091
1.04302,1.04336,0.88748,0.913089,31.313,0.0108689,0.0107848,0.0110513,-0.00334762,99.2262,-0.000341797,0.15588,-0.0256091
1.08672,1.08706,0.915567,0.941177,32.613,0.0112024,0.0112406,0.0114311,-0.00354707,100.341,-0.000341797,0.171493,-0.0256091
1.12993,1.13027,0.943227,0.968836,33.913,0.0116089,0.011502,0.011829,-0.00361736,99.0792,-0.000341797,0.187047,-0.0256091
1.17344,1.17378,0.968714,0.994323,35.213,0.0119984,0.0120602,0.0122666,-0.00385598,100.515,-0.000341797,0.205066,-0.0256091
1.21606,1.21641,0.996824,1.02243,36.513,0.0124746,0.0124146,0.0127397,-0.00388513,99.519,-0.000341797,0.219582,-0.0256091
1.26016,1.2605,1.0206,1.04621,37.813,0.0127284,0.0128048,0.0130212,-0.00410502,100.6,-0.000341797,0.239902,-0.0256091
1.30298,1.30332,1.04668,1.07229,39.113,0.013307,0.0132358,0.013557,-0.00434838,99.4649,-0.000341797,0.256643,-0.0256091
1.34668,1.34702,1.07088,1.09648,40.413,0.013551,0.0135193,0.013743,-0.00444626,99.7661,-0.000341797,0.276146,-0.0256091
1.39053,1.39087,1.09437,1.11998,41.713,0.0141178,0.0140587,0.0143294,-0.00465043,99.5814,-0.000341797,0.296495,-0.0256091
1.43374,1.43408,1.11488,1.14049,43.013,0.014296,0.0143647,0.0146041,-0.00473495,100.481,-0.000341797,0.3192,-0.0256091
1.47676,1.4771,1.13836,1.16397,44.313,0.0148122,0.0147303,0.0150842,-0.00495769,99.4471,-0.000341797,0.338735,-0.0256091
1.52036,1.5207,1.16284,1.18845,45.613,0.0151314,0.0152172,0.0154412,-0.00502533,100.567,-0.000341797,0.357865,-0.0256091
1.56313,1.56348,1.1814,1.207,46.913,0.0155377,0.0154632,0.0158269,-0.00525149,99.5205,-0.000341797,0.382081,-0.0256091
1.60649,1.60684,1.20019,1.22579,48.213,0.0158794,0.0159384,0.0162024,-0.00525952,100.372,-0.000341797,0.406651,-0.0256091
1.64966,1.65,1.21624,1.24185,49.513,0.0162315,0.0162623,0.0166314,-0.00554433,100.19,-0.000341797,0.43376,-0.0256091
1.69365,1.69399,1.23831,1.26392,50.813,0.0165379,0.0166174,0.0168527,-0.00561218,100.481,-0.000341797,0.455681,-0.0256091
1.73623,1.73657,1.25656,1.28217,52.113,0.016962,0.0170177,0.0174286,-0.00582911,100.328,-0.000341797,0.48001,-0.0256091
1.77964,1.77998,1.2722,1.29781,53.413,0.0171554,0.0172752,0.017577,-0.00599139,100.698,-0.000341797,0.507777,-0.0256091
1.82354,1.82388,1.28874,1.31434,54.713,0.0175936,0.0177575,0.0180686,-0.0061529,100.932,-0.000341797,0.535141,-0.0256091
1.86675,1.86709,1.30474,1.33035,56.013,0.0177086,0.01804,0.0182548,-0.00625764,101.871,-0.000341797,0.562345,-0.0256091
1.90991,1.91025,1.31945,1.34506,57.313,0.0182024,0.0183804,0.0186573,-0.00635696,100.978,-0.000341797,0.590804,-0.0256091
1.95391,1.95425,1.32994,1.35554,58.613,0.0184595,0.0187684,0.0190019,-0.00657311,101.673,-0.000341797,0.624313,-0.0256091
1.99692,1.99727,1.34487,1.37048,59.913,0.0188521,0.0189938,0.0192958,-0.00662729,100.752,-0.000341797,0.652394,-0.0256091
2.04033,2.04067,1.35503,1.38064,61.213,0.0191217,0.0194008,0.019655,-0.00678096,101.46,-0.000341797,0.685645,-0.0256091
2.08301,2.08335,1.36404,1.38965,62.513,0.0193877,0.0195858,0.0198974,-0.00684971,101.022,-0.000341797,0.719309,-0.0256091
2.1269,2.127246,1.37295,1.39856,63.813,0.0197098,0.0199759,0.0202415,-0.00702516,101.35,-0.000341797,0.754299,-0.0256091
2.16929,2.16963,1.38211,1.40772,65.113,0.0199538,0.0202095,0.0205284,-0.0070603,101.281,-0.000341797,0.787521,-0.0256091
2.21289,2.21323,1.38942,1.41503,66.413,0.0202756,0.0204806,0.0207822,-0.00726133,101.011,-0.000341797,0.823814,-0.0256091
2.25654,2.25688,1.39659,1.4222,67.713,0.020535,0.0206863,0.0211527,-0.00732222,100.737,-0.000341797,0.8602962,-0.0256091
2.2998,2.30015,1.40398,1.42959,69.013,0.0207881,0.0209354,0.0212761,-0.00753635,100.709,-0.000341797,0.896166,-0.0256091
2.34321,2.34355,1.41097,1.43658,70.313,0.0210865,0.021243,0.0217629,-0.00751457,100.742,-0.000341797,0.932582,-0.0256091
2.38687,2.38721,1.41821,1.44382,71.613,0.0212507,0.0214045,0.021775,-0.0077316,100.724,-0.000341797,0.968998,-0.0256091
2.42998,2.43032,1.42374,1.44935,72.913,0.0216011,0.0217494,0.022239,-0.00786761,100.687,-0.000341797,1.00658,-0.0256091
2.47388,2.47422,1.42663,1.45224,74.213,0.0216672,0.0218495,0.0222197,-0.00786999,100.841,-0.000341797,1.04759,-0.0256091
2.51709,2.51743,1.43157,1.45718,75.513,0.0220528,0.0222531,0.0226592,-0.00781449,100.908,-0.000341797,1.08586,-0.0256091
2.56064,2.56099,1.43384,1.45945,76.813,0.0220701,0.022326,0.0227152,-0.00804911,101.159,-0.000341797,1.12714,-0.0256091
2.60313,2.60347,1.43534,1.46094,78.113,0.0224878,0.0225852,0.023073,-0.00814736,100.433,-0.000341797,1.16813,-0.0256091
2.64639,2.64673,1.4336,1.45921,79.413,0.0224112,0.0226688,0.0230909,-0.00815717,101.149,-0.000341797,1.21313,-0.0256091
2.69028,2.69062,1.43569,1.4613,80.713,0.022727,0.0227953,0.0233226,-0.00820019,100.301,-0.000341797,1.25493,-0.0256091
2.73311,2.73345,1.42779,1.4534,82.013,0.022668,0.0229796,0.0233642,-0.00822806,101.375,-0.000341797,1.30566,-0.0256091
2.77607,2.77642,1.42815,1.45376,83.313,0.0229067,0.0229027,0.0234378,-0.00826727,99.9825,-0.000341797,1.34827,-0.0256091
2.81982,2.82017,1.41665,1.44226,84.613,0.0229244,0.0231763,0.0235423,-0.00812505,101.099,-0.000341797,1.40352,-0.0256091
2.86328,2.86362,1.40981,1.43541,85.913,0.0227938,0.0229356,0.0233037,-0.0081803,100.622,-0.000341797,1.45382,-0.0256091
2.90674,2.90708,1.39761,1.42322,87.213,0.0229533,0.0231147,0.0234022,-0.00813475,100.703,-0.000341797,1.50947,-0.0256091
2.95,2.95034,1.37997,1.40558,88.513,0.0227382,0.0230718,0.0233305,-0.00797599,101.467,-0.000341797,1.57037,-0.0256091
2.99434,2.99468,1.3645,1.39011,89.813,0.0224911,0.0228038,0.0230469,-0.00794983,101.39,-0.000341797,1.63018,-0.0256091
3.03706,3.0374,1.34324,1.36885,91.113,0.0223494,0.0225589,0.0228158,-0.00786136,100.937,-0.000341797,1.69416,-0.0256091
3.08008,3.08042,1.32257,1.34818,92.413,0.0221482,0.0223281,0.0225871,-0.00779949,100.812,-0.000341797,1.75785,-0.0256091
3.12344,3.12378,1.30427,1.32988,93.713,0.021874,0.0220607,0.0223484,-0.00773391,100.854,-0.000341797,1.81951,-0.0256091
3.1666,3.16694,1.28307,1.30868,95.013,0.0216642,0.0218622,0.0221549,-0.00757588,100.914,-0.000341797,1.88387,-0.0256091
3.20967,3.21001,1.26891,1.29451,96.313,0.0214585,0.0216619,0.021945,-0.00756688,100.948,-0.000341797,1.9411,-0.0256091
3.25332,3.25366,1.24971,1.27532,97.613,0.0212094,0.0213595,0.0218251,-0.00750385,100.708,-0.000341797,2.00395,-0.0256091
3.29639,3.29673,1.22289,1.2485,98.913,0.0207821,0.0212482,0.0216747,-0.0072495,102.243,-0.000341797,2.07384,-0.0256091
3.33984,3.34019,0.947779,0.973388,100.213,NaN,0.0205455,0.0212084,NaN,NaN,-0.000341797,2.39241,-0.0256091
3.37993,3.38027,0.08778,0.113389,101.418,NaN,0.0188015,0.0200098,NaN,NaN,-0.000341797,3.29249,-0.0256091