Folder: An-experimental-and-numerical-study-of-the-mechanical-response-of-3D-printed-semicrystalline-polymer/Raw_Data./Tensile Nozzle 0.4 mm/90 Degrees/LH0.2_90D_N0.4 (part 2)

File: Test 5.csv
Crosshead ,Crosshead ini,Load ,Load ini,Time ,Strain 1 ,Strain 2 ,Strain 3 ,Strain 4 ,PoissonRatio
0,0.000830078,0,0.000479894,0.115,-1.56E-05,5.84E-06,1.02E-06,1.20E-05,-37.4476
0.006933594,0.007763672,0.009512308,0.009992202,0.415,4.04E-05,1.17E-05,4.48E-05,3.69E-05,29.1012
0.01665039,0.0174805,0.0230098,0.0234897,0.715,0.000127923,-4.58E-05,0.000131894,0.000135105,-35.8313
0.0277344,0.0285645,0.041294,0.0417739,1.015,0.000278137,-2.92E-05,0.000291538,0.000256568,-10.5159
0.0387207,0.0395508,0.0522873,0.0527672,1.315,0.0003806,-6.49E-05,0.00037532,0.000339982,-17.0581
0.0490723,0.0499023,0.0694454,0.0699253,1.615,0.000470078,-0.000101885,0.000468002,0.000459498,-21.6741
0.0598145,0.0606445,0.0834731,0.083953,1.915,0.000573513,-0.000114401,0.000595775,0.000554115,-19.9474
0.0702637,0.0710938,0.100138,0.100618,2.215,0.000692827,-0.000120507,0.000689446,0.000672034,-17.3935
0.0811035,0.0819336,0.115646,0.116126,2.515,0.000840458,-0.00014539,0.000841401,0.000764955,-17.2989
0.0908691,0.0916992,0.126662,0.127141,2.815,0.000954108,-0.000168924,0.000946214,0.000922415,-17.7049
0.101367,0.102197,0.142664,0.143144,3.115,0.00106831,-0.000189075,0.00110543,0.00104949,-17.6985
0.111523,0.112354,0.159876,0.160356,3.415,0.00121628,-0.000236047,0.00122143,0.00118254,-19.4073
0.122168,0.122998,0.173276,0.173756,3.715,0.00131228,-0.000268776,0.00131507,0.00130499,-20.4816
0.132617,0.133447,0.186661,0.187141,4.015,0.00140925,-0.000315924,0.00144098,0.00140369,-22.4179
0.141992,0.142822,0.203292,0.203772,4.315,0.00149509,-0.000330098,0.00154382,0.00148199,-22.0788
0.152441,0.153271,0.213048,0.213528,4.615,0.00163888,-0.000353983,0.00163935,0.00160717,-21.5991
0.16333,0.16416,0.234766,0.235246,4.915,0.00177717,-0.000396128,0.00176975,0.00176654,-22.2898
0.172607,0.173437,0.244111,0.244591,5.215,0.00189882,-0.000356033,0.00191949,0.0019106,-18.7502
0.182324,0.183154,0.256777,0.257257,5.515,0.00198815,-0.000348555,0.00199997,0.0019973,-17.5316
0.193018,0.193848,0.272355,0.272835,5.815,0.00209297,-0.000363205,0.00210252,0.0021197,-17.3536
0.203271,0.204102,0.286951,0.287431,6.115,0.00218486,-0.000428895,0.00222887,0.00219007,-19.6303
0.212842,0.213672,0.297814,0.298294,6.415,0.00223054,-0.000471923,0.00227007,0.00227081,-21.1573
0.222412,0.223242,0.309727,0.310207,6.715,0.00239652,-0.00050973,0.00239716,0.00237472,-21.2696
0.233398,0.234229,0.323859,0.324339,7.015,0.00251183,-0.000552772,0.00251791,0.00250318,-22.0067
0.243164,0.243994,0.334487,0.334967,7.315,0.00264685,-0.000553721,0.0026668,0.00262911,-20.92
0.252539,0.253369,0.349869,0.350349,7.615,0.00273371,-0.000545256,0.00277342,0.00272113,-19.9456
0.262695,0.263525,0.36045,0.36093,7.915,0.00285302,-0.000583167,0.00285805,0.00282831,-20.4403
0.272705,0.273535,0.374354,0.374834,8.215,0.00294903,-0.000508635,0.00296737,0.00293952,-17.2475
0.282861,0.283691,0.388994,0.389474,8.515,0.00303436,-0.00061397,0.00305861,0.00303123,-20.2339
0.292822,0.293652,0.399395,0.399874,8.815,0.00318327,-0.000622296,0.0031844,0.00315395,-19.549
0.302588,0.303418,0.407113,0.407593,9.115,0.0033035,-0.000655314,0.00331973,0.00330961,-19.837
0.312793,0.313623,0.42369,0.42417,9.415,0.0034025,-0.000671617,0.00346115,0.00340919,-19.7389
0.323047,0.323877,0.434282,0.434762,9.715,0.00351372,-0.00070401,0.00355183,0.00354339,-20.036
0.333105,0.333936,0.447793,0.448273,10.015,0.00362493,-0.000724206,0.0036408,0.00363609,-19.9785
0.342285,0.343115,0.458616,0.459096,10.315,0.00369395,-0.000762002,0.0037145,0.00373948,-20.6284
0.352686,0.353516,0.467507,0.467987,10.615,0.0037786,-0.000773628,0.0038131,0.0038219,-20.4739
0.363428,0.364258,0.4838063,0.484286,10.915,0.00390691,-0.000812153,0.00392263,0.00389857,-20.7876
0.37251,0.37334,0.492202,0.492682,11.215,0.0040065,-0.000799047,0.00402014,0.00403848,-19.9438
0.382324,0.383154,0.498987,0.499467,11.515,0.00412057,-0.000840166,0.00415487,0.00413481,-20.3896
0.39292,0.39375,0.514251,0.514731,11.815,0.00422885,-0.000835013,0.00427063,0.00426854,-19.7456
0.403125,0.403955,0.526848,0.527328,12.115,0.00437121,-0.00085728,0.00438924,0.00438844,-19.612
0.412793,0.413623,0.535362,0.535842,12.415,0.00443835,-0.000863802,0.00451204,0.00447506,-19.4622
0.422314,0.423145,0.542602,0.543082,12.715,0.00454679,-0.000892032,0.00459013,0.00457369,-19.6189
0.43335,0.43418,0.556394,0.556874,13.015,0.00467863,-0.000922872,0.0046926,0.0046733,-19.7253
0.443164,0.443994,0.56687,0.56735,13.315,0.00480743,-0.000945147,0.00481891,0.00482318,-19.6601
0.452686,0.453516,0.576365,0.576845,13.615,0.0049418,-0.000928328,0.00498414,0.0049686,-18.7852
0.462988,0.463818,0.584605,0.585085,13.915,0.00503908,-0.000941368,0.00509439,0.00509346,-18.6813
0.473096,0.473926,0.599203,0.599683,14.215,0.00516694,-0.000968437,0.00520927,0.00519125,-18.743
0.483203,0.484033,0.607615,0.608095,14.515,0.0052383,-0.000985947,0.00531383,0.00533245,-18.8219
0.493115,0.493945,0.614967,0.615447,14.815,0.00530254,-0.000987071,0.00538051,0.00541429,-18.6151
0.502783,0.503613,0.624346,0.624826,15.115,0.00544031,-0.0010073,0.00548364,0.00550827,-18.5155
0.512988,0.513818,0.632799,0.633279,15.415,0.0055477,-0.00103373,0.00558543,0.00563949,-18.6335
0.523193,0.524023,0.641757,0.642237,15.715,0.00566036,-0.00105122,0.00572153,0.00573819,-18.5716
0.533301,0.534131,0.652541,0.653021,16.015,0.00575484,-0.00106264,0.00584153,0.00583818,-18.4652
0.542383,0.543213,0.659859,0.660339,16.315,0.00588791,-0.00105979,0.00594659,0.00597552,-17.9994
0.552783,0.553613,0.669894,0.670374,16.615,0.00598427,-0.00107395,0.00605401,0.00609538,-17.9462
0.563477,0.564307,0.680227,0.680707,16.915,0.00612612,-0.00103788,0.00617921,0.00620817,-16.9419
0.572559,0.573389,0.686947,0.687427,17.215,0.00627192,-0.00101805,0.00628795,0.00632242,-16.2319
0.582373,0.583203,0.69657,0.69705,17.515,0.00638596,-0.00107532,0.0064086,0.00643896,-16.8388
0.592969,0.593799,0.703815,0.704294,17.815,0.00649087,-0.00106171,0.00654816,0.00654027,-16.357
0.603174,0.604004,0.713798,0.714278,18.115,0.00660262,-0.00106336,0.0066832,0.00668159,-16.1051
0.612793,0.613623,0.71941,0.71989,18.415,0.00672682,-0.00108424,0.00679396,0.00681667,-16.1182
0.622314,0.623145,0.725692,0.726172,18.715,0.00682359,-0.00109127,0.006928,0.00696452,-15.9926
0.633398,0.634229,0.733367,0.733847,19.015,0.00691328,-0.00112338,0.00702689,0.00707849,-16.2496
0.643262,0.644092,0.741508,0.741988,19.315,0.00707525,-0.00109834,0.00716326,0.00717655,-15.5237
0.652686,0.653516,0.750453,0.750933,19.615,0.00718976,-0.00107624,0.00727783,0.00731962,-14.9691
0.662939,0.66377,0.755695,0.756175,19.915,0.00732723,-0.00106036,0.00744818,0.00753921,-14.4715
0.6729,0.67373,0.762743,0.763223,20.215,0.00742169,-0.00101608,0.00754329,0.00760443,-13.6907
0.68291,0.68374,0.77079,0.77127,20.515,0.00752693,-0.00102376,0.00765751,0.00772982,-13.6013
0.692773,0.693604,0.774956,0.775436,20.815,0.00764713,-0.00101242,0.00781659,0.00788597,-13.2392
0.698535,0.699365,-0.011172,-0.0106921,20.982,0.00771277,-0.000997921,0.00788661,0.00795723,-12.9386