Folder: An-experimental-and-numerical-study-of-the-mechanical-response-of-3D-printed-semicrystalline-polymer/Raw_Data./Tensile Nozzle 0.4 mm/90 Degrees/LH0.05_90D_N0.4

File: Test 1.csv
Crosshead ,Crosshead ini,Load ,Load ini,Time ,Strain 1 ,Strain 2 ,Strain 3 ,Strain 4 ,PoissonRatio
0,0.00078125,0,0.0163383,0.116,-1.62E-05,-6.72E-06,-1.19E-05,-2.13E-06,41.4773
0.005273437,0.004492188,0.00251903,0.0188573,0.316,4.15E-06,4.33E-08,-1.27E-06,7.13E-06,1.04289
0.0118164,0.0105957,0.007565018,0.02390329,0.516,-5.06E-06,-1.61E-05,6.75E-07,-4.08E-07,318.865
0.0186523,0.017334,0.0158232,0.0321615,0.716,5.45E-05,-5.56E-05,5.40E-05,5.38E-05,-101.982
0.026123,0.0243652,0.0249594,0.0412976,0.916,0.000121387,-7.37E-05,0.000126499,0.000119869,-60.7021
0.0336914,0.032373,0.0319739,0.0483122,1.116,0.000196151,-9.49E-05,0.000194615,0.000188768,-48.3936
0.0408203,0.039502,0.0389567,0.0552949,1.316,0.000275038,-0.00015129,0.000277695,0.00025863,-55.0069
0.0476074,0.0467285,0.0430756,0.0594139,1.516,0.000309969,-0.000151422,0.000318435,0.000303536,-48.8507
0.0544922,0.0533203,0.0461452,0.0624834,1.716,0.000400343,-0.000134451,0.000413914,0.000398567,-33.584
0.0619141,0.0606445,0.0526237,0.068962,1.916,0.000429643,-0.000123075,0.000438189,0.000430149,-28.6459
0.0687988,0.0678711,0.05509716,0.0714354,2.116,0.000520731,-0.000157257,0.000530822,0.000516857,-30.1993
0.0760254,0.0747559,0.0622734,0.0786117,2.316,0.000598691,-2.27E-05,0.000620381,0.000588726,-3.79525
0.0828613,0.08198242,0.070636,0.0869743,2.516,0.000682467,-3.07E-05,0.000706669,0.000677224,-4.50239
0.08950195,0.0885742,0.0689629,0.0853012,2.716,0.000736779,-2.15E-05,0.000755132,0.000726349,-2.91435
0.0967285,0.095459,0.0755386,0.0918768,2.916,0.000877224,-3.68E-05,0.000888791,0.000865456,-4.19221
0.103027,0.102246,0.0797459,0.0960842,3.116,0.00093247,-5.47E-05,0.000995392,0.000966508,-5.86109
0.110107,0.108838,0.0849934,0.101332,3.316,0.00103051,-2.23E-05,0.00105036,0.00101851,-2.15932
0.117334,0.116016,0.0880788,0.104417,3.516,0.00110837,-5.13E-05,0.0011396,0.00110746,-4.6311
0.124365,0.123096,0.0937772,0.110116,3.716,0.00116831,-0.000104315,0.00120292,0.00116677,-8.92871
0.13125,0.130078,0.09785643,0.114195,3.916,0.00123586,-0.000110508,0.00128958,0.00124725,-8.94179
0.137402,0.136475,0.103609,0.119948,4.116,0.00129798,-6.81E-05,0.00136534,0.00130673,-5.25005
0.144043,0.142871,0.102763,0.119101,4.316,0.00136841,-0.000111737,0.00143209,0.00138039,-8.16546
0.151074,0.149756,0.109045,0.125383,4.516,0.00140427,-0.000120147,0.00149954,0.00142745,-8.55583
0.158447,0.156836,0.114798,0.131137,4.716,0.00146991,-0.000145051,0.00154177,0.00146957,-9.86802
0.165332,0.164258,0.120166,0.136505,4.916,0.00157778,-0.000148334,0.00166496,0.00158659,-9.40144
0.171143,0.170313,0.121139,0.137477,5.116,0.00168002,-9.81E-05,0.00177158,0.00170572,-5.84201
0.177881,0.17666,0.125284,0.141622,5.316,0.00177024,-0.000124584,0.00186444,0.0017812,-7.03769
0.184326,0.183252,0.129389,0.145728,5.516,0.00183957,-0.000137102,0.00193174,0.00184758,-7.45294
0.191602,0.190039,0.132421,0.14876,5.716,0.00190894,-0.000129988,0.00201645,0.00192901,-6.80943
0.198975,0.197656,0.136952,0.153291,5.916,0.00195359,-0.000147615,0.00207062,0.00198507,-7.55609
0.205029,0.20415,0.14106,0.157398,6.116,0.00204056,9.97E-07,0.00214143,0.00206264,0.0488431
0.211426,0.210352,0.146575,0.162913,6.316,0.00210112,-3.45E-05,0.00219042,0.0021007,-1.64065
0.217822,0.216748,0.145107,0.161445,6.516,0.00217003,-3.52E-05,0.00229056,0.00218069,-1.62388
0.224658,0.223291,0.152863,0.169201,6.716,0.00224141,-2.72E-05,0.00235567,0.00223665,-1.21521
0.231982,0.230615,0.154815,0.171153,6.916,0.00233021,-1.91E-05,0.00244861,0.00232752,-0.820853
0.238525,0.237354,0.158762,0.175101,7.116,0.00241502,2.53E-05,0.00252757,0.00240722,1.04559
0.245068,0.244043,0.160804,0.177142,7.316,0.00250412,-5.03E-05,0.0026371,0.00251358,-2.00891
0.251123,0.250195,0.167458,0.183796,7.516,0.00256302,-9.28E-05,0.00266734,0.00254373,-3.61957
0.257959,0.256641,0.169931,0.186269,7.716,0.00264847,-7.07E-05,0.00275805,0.00265009,-2.67071
0.264746,0.263623,0.174054,0.190392,7.916,0.00276199,-9.63E-05,0.00286359,0.00275552,-3.48782
0.271338,0.270166,0.177336,0.193674,8.116,0.00283289,-8.96E-05,0.00293647,0.00282297,-3.16174
0.278369,0.277002,0.1805,0.196838,8.316,0.00290556,-0.000107277,0.00301739,0.0029046,-3.69213
0.284814,0.283789,0.182974,0.199312,8.516,0.00296877,-9.47E-05,0.00308398,0.00296,-3.1899
0.291455,0.290186,0.184007,0.200345,8.716,0.00303046,-0.000123681,0.0031691,0.00302665,-4.08126
0.298291,0.297119,0.187186,0.203524,8.916,0.00307935,-0.000123197,0.00321081,0.00306229,-4.00075
0.304443,0.303467,0.192394,0.208732,9.116,0.00316252,-0.000122869,0.00329688,0.0031563,-3.88516
0.311426,0.310059,0.2,0.216338,9.316,0.00323765,-0.000122791,0.00337957,0.00321371,-3.7926
0.318408,0.317041,0.199541,0.215879,9.516,0.00332074,-1.56E-05,0.0034723,0.00330402,-0.470799
0.325195,0.323926,0.197541,0.213879,9.716,0.00339527,2.20E-06,0.00355182,0.00339936,0.0646714
0.331738,0.330664,0.204749,0.221088,9.916,0.00346381,2.33E-05,0.00362676,0.00348422,0.673764
0.337793,0.336865,0.206264,0.222602,10.116,0.00350723,3.68E-05,0.00369518,0.00351248,1.04969
0.344336,0.343164,0.21128,0.227618,10.316,0.0035306,-4.07E-05,0.00370414,0.00356438,-1.15219
0.351318,0.35,0.210153,0.226491,10.516,0.00358986,-1.46E-06,0.00377065,0.00363205,-0.0406339
0.358496,0.356934,0.218061,0.234399,10.716,0.00363605,-3.10E-05,0.00382839,0.00366158,-0.851284
0.365332,0.364258,0.220021,0.236359,10.916,0.00370673,-4.91E-05,0.00390078,0.00372579,-1.32375
0.371094,0.370264,0.220456,0.236794,11.116,0.00376391,-4.96E-05,0.00396104,0.00378079,-1.3177
0.377832,0.376611,0.221994,0.238333,11.316,0.00384321,-7.92E-05,0.00402956,0.00383556,-2.06181
0.384277,0.383203,0.223253,0.239592,11.516,0.00388509,-9.21E-05,0.00409323,0.00388412,-2.36949
0.391504,0.389941,0.22817,0.244508,11.716,0.00395935,-0.000105069,0.00414415,0.00395433,-2.65369
0.398877,0.397559,0.2297202,0.246058,11.916,0.00402548,-0.000129659,0.00420226,0.00404034,-3.22096
0.404932,0.404004,0.232249,0.248587,12.116,0.00412697,-7.87E-05,0.00430534,0.00414539,-1.90737
0.411328,0.410303,0.231999,0.248337,12.316,0.00418384,-0.000125469,0.00436217,0.00423204,-2.9989
0.417725,0.416699,0.234905,0.251243,12.516,0.00422819,-7.86E-05,0.00441898,0.00428558,-1.86003
0.424609,0.423193,0.23472,0.251058,12.716,0.00427366,-8.39E-06,0.00449111,0.00435632,-0.19638
0.431934,0.430615,0.237036,0.253375,12.916,0.00429482,1.11E-05,0.00457163,0.00439294,0.259119
0.438574,0.437305,0.239413,0.255752,13.116,0.00441239,3.63E-05,0.00465396,0.00449569,0.821922
0.445117,0.444092,0.242647,0.258986,13.316,0.00445707,4.31E-05,0.0047191,0.00457797,0.966065
0.45127,0.450293,0.245066,0.261404,13.516,0.00453612,1.41E-06,0.00480706,0.00466238,0.0311793
0.458301,0.456885,0.244219,0.260557,13.716,0.00459369,-2.17E-06,0.00486987,0.00472066,-0.047183
0.465088,0.463916,0.248125,0.264464,13.916,0.00465878,1.93E-05,0.00494109,0.00480217,0.4136
0.471729,0.470459,0.247482,0.263821,14.116,0.00471721,-9.99E-06,0.00500654,0.00487423,-0.21171
0.478711,0.477393,0.249532,0.26587,14.316,0.00474342,-2.45E-05,0.00504578,0.004917,-0.515961
0.485156,0.484033,0.251693,0.268031,14.516,0.00480405,-1.04E-05,0.00509445,0.00499134,-0.216265
0.491699,0.490479,0.251752,0.26809,14.716,0.00485774,-1.43E-06,0.00514923,0.00504269,-0.0294378
0.495068,,0,0,,,,,,
,,,,,,,,,
,,,,,,,,,
,,,,,,,,,
,,,,,,,,,
,,,,,,,,,
,,,,,,,,,
,,,,,,,,,
,,,,,,,,,
,,,,,,,,,
,,,,,,,,,
,,,,,,,,,
,,,,,,,,,
,,,,,,,,,
,,,,,,,,,
,,,,,,,,,
,,,,,,,,,
,,,,,,,,,
,,,,,,,,,
,,,,,,,,,
,,,,,,,,,
,,,,,,,,,
,,,,,,,,,
,,,,,,,,,
,,,,,,,,,
,,,,,,,,,
,,,,,,,,,
,,,,,,,,,
,,,,,,,,,
,,,,,,,,,
,,,,,,,,,
,,,,,,,,,
,,,,,,,,,
,,,,,,,,,
,,,,,,,,,
,,,,,,,,,
,,,,,,,,,
,,,,,,,,,
,,,,,,,,,
,,,,,,,,,
,,,,,,,,,
,,,,,,,,,
,,,,,,,,,
,,,,,,,,,
,,,,,,,,,
,,,,,,,,,
,,,,,,,,,
,,,,,,,,,
,,,,,,,,,
,,,,,,,,,
,,,,,,,,,
,,,,,,,,,
,,,,,,,,,
,,,,,,,,,
,,,,,,,,,
,,,,,,,,,
,,,,,,,,,
,,,,,,,,,
,,,,,,,,,
,,,,,,,,,
,,,,,,,,,
,,,,,,,,,
,,,,,,,,,
,,,,,,,,,
,,,,,,,,,
,,,,,,,,,
,,,,,,,,,
,,,,,,,,,
,,,,,,,,,
,,,,,,,,,
,,,,,,,,,
,,,,,,,,,
,,,,,,,,,
,,,,,,,,,
,,,,,,,,,
,,,,,,,,,
,,,,,,,,,
,,,,,,,,,
,,,,,,,,,
,,,,,,,,,
,,,,,,,,,
,,,,,,,,,
,,,,,,,,,
,,,,,,,,,
,,,,,,,,,
,,,,,,,,,
,,,,,,,,,
,,,,,,,,,
,,,,,,,,,
,,,,,,,,,
,,,,,,,,,
,,,,,,,,,
,,,,,,,,,
,,,,,,,,,
,,,,,,,,,
,,,,,,,,,
,,,,,,,,,
,,,,,,,,,
,,,,,,,,,
,,,,,,,,,
,,,,,,,,,
,,,,,,,,,
,,,,,,,,,