Folder: An-experimental-and-numerical-study-of-the-mechanical-response-of-3D-printed-semicrystalline-polymer/Raw_Data./Tensile Nozzle 0.4 mm/90 Degrees/LH0.2_90D_N0.4

File: Test 2.csv
Crosshead ,Crosshead ini,Load ,Load ini,Time ,Strain 1 ,Strain 2 ,Strain 3 ,Strain 4 ,PoissonRatio ,,,
0,0.00078125,0,0.00646808,0.112,-3.07E-05,6.15E-06,-4.12E-05,-3.95E-05,-19.9958,-0.00078125,0.00078125,-0.00646808
0.006738281,0.007519531,0.006791758,0.0132598,0.412,-3.37E-05,-1.69E-05,2.69E-06,-4.14E-06,49.9924,-0.00078125,,-0.00646808
0.01640625,0.0171875,0.0197702,0.0262383,0.712,4.46E-05,-2.59E-05,7.05E-05,6.58E-05,-58.0935,-0.00078125,,-0.00646808
0.0273926,0.0281738,0.0360268,0.0424949,1.012,0.000161975,-7.48E-05,0.000219967,0.000183163,-46.1827,-0.00078125,,-0.00646808
0.0383789,0.0391602,0.05367792,0.060146,1.312,0.000335071,-5.10E-05,0.00033439,0.000325341,-15.2244,-0.00078125,,-0.00646808
0.0488281,0.0496094,0.0634584,0.0699264,1.612,0.000393115,-7.28E-05,0.000403297,0.000385381,-18.5122,-0.00078125,,-0.00646808
0.0595215,0.0603027,0.07820851,0.08467659,1.912,0.000464793,-0.000143528,0.000495775,0.000459351,-30.88,-0.00078125,,-0.00646808
0.0700195,0.0708008,0.0949045,0.101373,2.212,0.000649475,-3.15E-05,0.00067267,0.000658188,-4.84922,-0.00078125,,-0.00646808
0.080957,0.0817383,0.10933,0.115798,2.512,0.000769096,-8.70E-05,0.000794544,0.000781436,-11.307,-0.00078125,,-0.00646808
0.0907227,0.0915039,0.119995,0.126463,2.812,0.000908352,-9.38E-05,0.000923734,0.000900886,-10.3232,-0.00078125,,-0.00646808
0.101318,0.1021,0.135243,0.141711,3.112,0.00101165,-8.83E-05,0.0010455,0.000990258,-8.72475,-0.00078125,,-0.00646808
0.111426,0.112207,0.147404,0.153872,3.412,0.00115076,-0.000126292,0.00116298,0.00113044,-10.9747,-0.00078125,,-0.00646808
0.122119,0.1229,0.162547,0.169015,3.712,0.00118186,-0.000167786,0.00118597,0.00115485,-14.1968,-0.00078125,,-0.00646808
0.132568,0.13335,0.176707,0.183175,4.012,0.00137144,-0.000208986,0.00139421,0.00133124,-15.2384,-0.00078125,,-0.00646808
0.141943,0.142725,0.188515,0.194983,4.312,0.00148349,-0.000237788,0.00149971,0.00146617,-16.029,-0.00078125,,-0.00646808
0.152441,0.153223,0.201435,0.207903,4.612,0.00155376,-0.000216063,0.00156926,0.0015343,-13.9058,-0.00078125,,-0.00646808
0.163379,0.16416,0.214505,0.220973,4.912,0.00169093,-0.000243671,0.00170498,0.00166649,-14.4105,-0.00078125,,-0.00646808
0.172559,0.17334,0.226833,0.233301,5.212,0.00178602,-0.000213986,0.00183864,0.00178019,-11.9812,-0.00078125,,-0.00646808
0.182373,0.183154,0.24231,0.248778,5.512,0.00189404,-0.000212092,0.00191288,0.00189156,-11.1979,-0.00078125,,-0.00646808
0.192969,0.19375,0.254462,0.26093,5.812,0.00197903,-0.00021115,0.00199274,0.00197987,-10.6694,-0.00078125,,-0.00646808
0.203271,0.204053,0.268688,0.275156,6.112,0.00207063,-0.000245208,0.00211268,0.00206393,-11.8422,-0.00078125,,-0.00646808
0.212793,0.213574,0.280046,0.286514,6.412,0.00218625,-0.000251741,0.00219326,0.00215976,-11.5147,-0.00078125,,-0.00646808
0.222363,0.223145,0.289807,0.296276,6.712,0.00225652,-0.000301558,0.00225853,0.00222135,-13.3639,-0.00078125,,-0.00646808
0.23335,0.234131,0.304583,0.311051,7.012,0.00237742,-0.000317274,0.00239475,0.00236815,-13.3453,-0.00078125,,-0.00646808
0.243115,0.243896,0.318735,0.325203,7.312,0.00254867,-0.000378833,0.00254738,0.00247659,-14.8639,-0.00078125,,-0.00646808
0.25249,0.253271,0.327864,0.334332,7.612,0.00266979,-0.000387743,0.00266244,0.00260831,-14.5234,-0.00078125,,-0.00646808
0.262695,0.263477,0.340911,0.347379,7.912,0.00274925,-0.000412816,0.00274725,0.00269081,-15.0156,-0.00078125,,-0.00646808
0.272754,0.273535,0.351303,0.357771,8.212,0.00288074,-0.000363503,0.00289868,0.00281523,-12.6184,-0.00078125,,-0.00646808
0.28291,0.283691,0.363253,0.369721,8.512,0.00299184,-0.000314733,0.00297737,0.00292627,-10.5197,-0.00078125,,-0.00646808
0.292822,0.293604,0.375052,0.38152,8.812,0.00307933,-0.000340649,0.00307645,0.00301938,-11.0624,-0.00078125,,-0.00646808
0.302588,0.303369,0.386104,0.392572,9.112,0.00320859,-0.000349997,0.00321442,0.00314988,-10.9081,-0.00078125,,-0.00646808
0.312793,0.313574,0.397783,0.404252,9.412,0.0032628,-0.00039795,0.00331137,0.00320396,-12.1966,-0.00078125,,-0.00646808
0.323047,0.323828,0.406623,0.413091,9.712,0.00340787,-0.00042146,0.00341608,0.00334724,-12.3673,-0.00078125,,-0.00646808
0.333105,0.333887,0.418867,0.425335,10.012,0.00347618,-0.00044894,0.00349769,0.00345372,-12.9148,-0.00078125,,-0.00646808
0.342285,0.343066,0.429858,0.436326,10.312,0.00359717,-0.000471792,0.00359236,0.00356031,-13.1156,-0.00078125,,-0.00646808
0.352637,0.353418,0.439727,0.446196,10.612,0.00369369,-0.000480712,0.00368685,0.0036354,-13.0144,-0.00078125,,-0.00646808
0.363379,0.36416,0.453596,0.460064,10.912,0.00378249,-0.000510994,0.00377216,0.00373389,-13.5095,-0.00078125,,-0.00646808
0.372461,0.373242,0.460285,0.466753,11.212,0.0038697,-0.000495878,0.00387494,0.00383746,-12.8144,-0.00078125,,-0.00646808
0.382324,0.383105,0.469757,0.476226,11.512,0.00399458,-0.000509161,0.00397294,0.00393141,-12.7463,-0.00078125,,-0.00646808
0.39292,0.393701,0.482799,0.489267,11.812,0.00412108,-0.000481677,0.00411375,0.00404131,-11.6881,-0.00078125,,-0.00646808
0.403125,0.403906,0.49537,0.501838,12.112,0.00427405,-0.000517001,0.00427559,0.00420768,-12.0963,-0.00078125,,-0.00646808
0.412744,0.413525,0.503586,0.510055,12.412,0.00430888,-0.000478345,0.00430319,0.00425285,-11.1014,-0.00078125,,-0.00646808
0.422363,0.423145,0.513749,0.520217,12.712,0.00444651,-0.00053428,0.00442363,0.00435142,-12.0157,-0.00078125,,-0.00646808
0.43335,0.434131,0.523458,0.529926,13.012,0.00456542,-0.000538863,0.0045299,0.00446467,-11.8031,-0.00078125,,-0.00646808
0.443213,0.443994,0.530306,0.536774,13.312,0.00464572,-0.000546603,0.00464114,0.0045687,-11.7657,-0.00078125,,-0.00646808
0.452686,0.453467,0.542651,0.549119,13.612,0.00480595,-0.000590666,0.00475845,0.00467994,-12.2903,-0.00078125,,-0.00646808
0.463037,0.463818,0.54807,0.554538,13.912,0.00494744,-0.000613945,0.00493944,0.00482764,-12.4093,-0.00078125,,-0.00646808
0.473096,0.473877,0.561299,0.567767,14.212,0.00502944,-0.000625745,0.00504593,0.00495289,-12.4416,-0.00078125,,-0.00646808
0.483203,0.483984,0.570695,0.577164,14.512,0.00508106,-0.000632488,0.00509215,0.00502991,-12.448,-0.00078125,,-0.00646808
0.493115,0.493896,0.579421,0.585889,14.812,0.00519049,-0.000584135,0.00523935,0.00516058,-11.2539,-0.00078125,,-0.00646808
0.502783,0.503564,0.587389,0.593857,15.112,0.00530243,-0.000583504,0.00531556,0.00526465,-11.0045,-0.00078125,,-0.00646808
0.512939,0.513721,0.594758,0.601227,15.412,0.00539984,-0.000582711,0.00539568,0.00535709,-10.7913,-0.00078125,,-0.00646808
0.523145,0.523926,0.607034,0.613502,15.712,0.00547584,-0.000623869,0.00548771,0.00540952,-11.3931,-0.00078125,,-0.00646808
0.533252,0.534033,0.613326,0.619794,16.012,0.00560715,-0.000614123,0.00561292,0.00553317,-10.9525,-0.00078125,,-0.00646808
0.542334,0.543115,0.621582,0.62805,16.312,0.00570817,-0.000631994,0.00569761,0.00560949,-11.0717,-0.00078125,,-0.00646808
0.552734,0.553516,0.629798,0.636266,16.612,0.00580523,-0.000648038,0.00579277,0.00571129,-11.163,-0.00078125,,-0.00646808
0.563428,0.564209,0.63892,0.645388,16.912,0.00589625,-0.000674806,0.00591194,0.00581068,-11.4447,-0.00078125,,-0.00646808
0.57251,0.573291,0.646904,0.653372,17.212,0.0060131,-0.000673973,0.00599586,0.00592089,-11.2084,-0.00078125,,-0.00646808
0.582324,0.583105,0.654659,0.661127,17.512,0.00612245,-0.000642653,0.00610078,0.00601772,-10.4967,-0.00078125,,-0.00646808
0.592871,0.593652,0.662422,0.66889,17.812,0.00618867,-0.000674729,0.00621702,0.00605998,-10.9026,-0.00078125,,-0.00646808
0.603027,0.603809,0.670834,0.677302,18.112,0.00628578,-0.000634532,0.00627443,0.00615184,-10.0947,-0.00078125,,-0.00646808
0.612598,0.613379,0.677733,0.684201,18.412,0.00641219,-0.000633881,0.00638867,0.00625634,-9.88556,-0.00078125,,-0.00646808
0.6222168,0.622998,0.681747,0.688215,18.712,0.00655952,-0.000637436,0.00655047,0.00639212,-9.71772,-0.00078125,,-0.00646808
0.63335,0.634131,0.692724,0.699192,19.012,0.00663774,-0.000650453,0.00665328,0.00649632,-9.79931,-0.00078125,,-0.00646808
0.643213,0.643994,0.701569,0.708037,19.312,0.00676288,-0.000688584,0.00675879,0.00665387,-10.1818,-0.00078125,,-0.00646808
0.652637,0.653418,0.706681,0.713149,19.612,0.0068307,-0.000694195,0.00682073,0.00673512,-10.1629,-0.00078125,,-0.00646808
0.662891,0.663672,0.713874,0.720342,19.912,0.00690863,-0.000685206,0.00692357,0.00681283,-9.91812,-0.00078125,,-0.00646808
0.6729,0.673682,0.720372,0.72684,20.212,0.00701142,-0.000691411,0.00697751,0.00686704,-9.86121,-0.00078125,,-0.00646808
0.683008,0.683789,0.726708,0.733176,20.512,0.0071171,-0.000691847,0.0070645,0.00694623,-9.72091,-0.00078125,,-0.00646808
0.692871,0.693652,0.725534,0.732003,20.812,0.00722943,-0.000663359,0.00716391,0.0070214,-9.17581,-0.00078125,,-0.00646808
0.694238,0.69502,-0.009175912,-0.002707832,20.851,0.00724242,-0.000651648,0.0071683,0.00701282,-8.99766,-0.00078125,,-0.00646808

File: Test 3.csv
Crosshead ,Crosshead ini,Load ,Load ini,Time ,Strain 1 ,Strain 2 ,Strain 3 ,Strain 4 ,PoissonRatio ,,,
0,0.000878906,0,-0.003381635,0.122,5.86E-06,3.17E-05,3.21E-06,6.96E-06,541.926,-0.000878906,0.000878906,0.003381635
0.006591797,0.007470703,0.006401315,0.00301968,0.422,1.32E-05,-3.70E-06,1.05E-05,4.58E-06,-27.9864,-0.000878906,,0.003381635
0.0161621,0.017041,0.0185707,0.015189,0.722,8.29E-05,-3.81E-05,7.62E-05,7.09E-05,-46.004,-0.000878906,,0.003381635
0.02709961,0.0279785,0.0348041,0.0314224,1.022,0.000186104,-0.000102649,0.00017237,0.000182632,-55.1568,-0.000878906,,0.003381635
0.0381348,0.03901367,0.0486567,0.045275,1.322,0.00027297,-0.000147745,0.000268489,0.000257691,-54.125,-0.000878906,,0.003381635
0.0486328,0.04951172,0.0624736,0.059092,1.622,0.000373897,-0.000195787,0.000356474,0.000347878,-52.3639,-0.000878906,,0.003381635
0.0593262,0.0602051,0.0771446,0.073763,1.922,0.000420322,-0.000155311,0.000451386,0.000401326,-36.9505,-0.000878906,,0.003381635
0.069873,0.07075195,0.09170635,0.0883247,2.222,0.000546062,-0.000208722,0.000537685,0.000512099,-38.2231,-0.000878906,,0.003381635
0.0807617,0.0816406,0.105427,0.102046,2.522,0.00065717,-0.000246413,0.000651882,0.000636488,-37.4961,-0.000878906,,0.003381635
0.090625,0.0915039,0.118595,0.115214,2.822,0.000767256,-0.000260824,0.000765666,0.000732746,-33.9944,-0.000878906,,0.003381635
0.101172,0.102051,0.132271,0.12889,3.122,0.000908203,-0.00036106,0.000902293,0.000852791,-39.7554,-0.000878906,,0.003381635
0.111328,0.112207,0.14378,0.140399,3.422,0.000978935,-0.000438432,0.000990003,0.000960438,-44.7866,-0.000878906,,0.003381635
0.12207,0.122949,0.160075,0.156694,3.722,0.00108092,-0.000463865,0.00109024,0.00104452,-42.9139,-0.000878906,,0.003381635
0.13252,0.133398,0.176942,0.17356,4.022,0.00114455,-0.000548683,0.00115419,0.0011221,-47.9388,-0.000878906,,0.003381635
0.141943,0.142822,0.186308,0.182926,4.322,0.00122985,-0.000595122,0.0012346,0.00120192,-48.3898,-0.000878906,,0.003381635
0.152393,0.153271,0.200661,0.19728,4.622,0.00132207,-0.000601464,0.00133265,0.00129075,-45.4941,-0.000878906,,0.003381635
0.163281,0.16416,0.213357,0.209976,4.922,0.00140794,-0.000646593,0.00142861,0.0013939,-45.9248,-0.000878906,,0.003381635
0.172559,0.173437,0.225286,0.221905,5.222,0.00153392,-0.000623369,0.00155062,0.00149446,-40.639,-0.000878906,,0.003381635
0.182324,0.183203,0.238556,0.235174,5.522,0.00158595,-0.000666688,0.00160565,0.00157757,-42.0371,-0.000878906,,0.003381635
0.192969,0.193848,0.247271,0.243889,5.822,0.00171512,-0.000681598,0.0017216,0.00170033,-39.7405,-0.000878906,,0.003381635
0.203223,0.204102,0.26425,0.260868,6.122,0.0017814,-0.000748939,0.00179436,0.00177533,-42.0422,-0.000878906,,0.003381635
0.212793,0.213672,0.274033,0.270651,6.422,0.00187645,-0.000819458,0.00189649,0.00186901,-43.6707,-0.000878906,,0.003381635
0.222314,0.223193,0.287172,0.283791,6.722,0.00197248,-0.000856316,0.00198853,0.00195338,-43.4132,-0.000878906,,0.003381635
0.233301,0.23418,0.298351,0.294969,7.022,0.002048,-0.000916899,0.00206749,0.0020275,-44.7705,-0.000878906,,0.003381635
0.243066,0.243945,0.308493,0.305112,7.322,0.00221107,-0.000969863,0.00223076,0.00214056,-43.864,-0.000878906,,0.003381635
0.252441,0.25332,0.321261,0.317879,7.622,0.00232672,-0.00102022,0.0023462,0.0022815,-43.848,-0.000878906,,0.003381635
0.262695,0.263574,0.332511,0.32913,7.922,0.00241808,-0.00104989,0.00244748,0.00238703,-43.4183,-0.000878906,,0.003381635
0.272656,0.273535,0.344537,0.341155,8.222,0.00250412,-0.000999344,0.00254223,0.00248798,-39.908,-0.000878906,,0.003381635
0.282812,0.283691,0.356049,0.352667,8.522,0.00259808,-0.00105101,0.00264195,0.00258956,-40.4533,-0.000878906,,0.003381635
0.292773,0.293652,0.365858,0.362476,8.822,0.00264352,-0.00109777,0.0026993,0.00264186,-41.5268,-0.000878906,,0.003381635
0.302539,0.303418,0.37835,0.374969,9.122,0.00273829,-0.00112914,0.0027879,0.00272212,-41.2352,-0.000878906,,0.003381635
0.312793,0.313672,0.389169,0.385787,9.422,0.00284897,-0.00120344,0.00291617,0.00283398,-42.2412,-0.000878906,,0.003381635
0.322949,0.323828,0.401163,0.397782,9.722,0.00296768,-0.00121344,0.00301551,0.0029466,-40.8885,-0.000878906,,0.003381635
0.333008,0.333887,0.411025,0.407643,10.022,0.00308363,-0.00128073,0.00313655,0.00307649,-41.5332,-0.000878906,,0.003381635
0.342188,0.343066,0.419508,0.416126,10.322,0.00316633,-0.00134871,0.00320429,0.00314692,-42.5954,-0.000878906,,0.003381635
0.352637,0.353516,0.431773,0.428392,10.622,0.00322765,-0.00139592,0.00328022,0.00321618,-43.2488,-0.000878906,,0.003381635
0.36333,0.364209,0.444051,0.440669,10.922,0.00330525,-0.00148389,0.00335647,0.0033183,-44.8949,-0.000878906,,0.003381635
0.372412,0.373291,0.450484,0.447102,11.222,0.00339413,-0.00148552,0.00343908,0.00338589,-43.7673,-0.000878906,,0.003381635
0.382275,0.383154,0.46215,0.458768,11.522,0.0034839,-0.00141975,0.00352192,0.00347132,-40.7517,-0.000878906,,0.003381635
0.392822,0.393701,0.469263,0.465881,11.822,0.00364685,-0.00147049,0.0036979,0.00362783,-40.3222,-0.000878906,,0.003381635
0.403076,0.403955,0.481262,0.47788,12.122,0.00377296,-0.00150275,0.00381568,0.00372716,-39.8295,-0.000878906,,0.003381635
0.412695,0.413574,0.489288,0.485906,12.422,0.00384785,-0.00153137,0.0039107,0.00381698,-39.7981,-0.000878906,,0.003381635
0.422314,0.423193,0.498395,0.495014,12.722,0.00396854,-0.00162224,0.00402778,0.00393032,-40.8775,-0.000878906,,0.003381635
0.433301,0.43418,0.510255,0.506873,13.022,0.00405423,-0.00166256,0.00411996,0.00403867,-41.008,-0.000878906,,0.003381635
0.443164,0.444043,0.515978,0.512597,13.322,0.0041429,-0.00170845,0.00422414,0.00415088,-41.238,-0.000878906,,0.003381635
0.452588,0.453467,0.5267,0.523318,13.622,0.00420883,-0.001751,0.00430299,0.00420537,-41.603,-0.000878906,,0.003381635
0.462939,0.463818,0.535683,0.532301,13.922,0.00433103,-0.00180766,0.00440564,0.00432503,-41.7374,-0.000878906,,0.003381635
0.473047,0.473926,0.545535,0.542154,14.222,0.00442271,-0.00180261,0.00449842,0.00440527,-40.758,-0.000878906,,0.003381635
0.483105,0.483984,0.556058,0.552676,14.522,0.00453963,-0.00179087,0.00462017,0.00453662,-39.4497,-0.000878906,,0.003381635
0.493018,0.493896,0.563683,0.560302,14.822,0.00465675,-0.0018299,0.0047308,0.00464606,-39.2956,-0.000878906,,0.003381635
0.502734,0.503613,0.567535,0.564154,15.122,0.00472672,-0.00182806,0.0047972,0.00473843,-38.675,-0.000878906,,0.003381635
0.512939,0.513818,0.580634,0.577252,15.422,0.00480141,-0.0018686,0.00486807,0.00480555,-38.9177,-0.000878906,,0.003381635
0.523096,0.523975,0.583645,0.580263,15.722,0.00484673,-0.00191865,0.00495757,0.00486182,-39.5865,-0.000878906,,0.003381635
0.5332031,0.534082,0.594232,0.59085,16.022,0.00500107,-0.00199764,0.00507214,0.00499743,-39.9443,-0.000878906,,0.003381635
0.542334,0.543213,0.599802,0.59642,16.322,0.00510155,-0.00202689,0.00516811,0.0050718,-39.7309,-0.000878906,,0.003381635
0.552637,0.553516,0.607597,0.604215,16.622,0.00524809,-0.00204558,0.00529866,0.00519469,-38.9776,-0.000878906,,0.003381635
0.563428,0.564307,0.616517,0.613135,16.922,0.00538707,-0.00207782,0.00545838,0.00533592,-38.5705,-0.000878906,,0.003381635
0.572461,0.57334,0.621562,0.618181,17.222,0.00544706,-0.0021201,0.00551962,0.00542531,-38.9219,-0.000878906,,0.003381635
0.582275,0.583154,0.626595,0.623213,17.522,0.00552346,-0.00205055,0.00559894,0.00551499,-37.1244,-0.000878906,,0.003381635
0.589258,0.590137,0.0134363,0.0100546,17.727,0.00558081,-0.00205731,0.00564723,0.00557642,-36.864,-0.000878906,,0.003381635

File: Test 4.csv
Crosshead ,Crosshead ini,Load ,Load ini,Time ,Strain 1 ,Strain 2 ,Strain 3 ,Strain 4 ,PoissonRatio
0,0.000830078,0,-0.00818835,0.119,2.65E-05,1.77E-06,3.00E-05,3.19E-05,6.68868
0.006835937,0.007666015,0.005953212,-0.002235138,0.419,4.79E-05,1.18E-05,5.20E-05,3.67E-05,24.6644
0.0165527,0.0173828,0.0229532,0.0147648,0.719,0.000112908,-5.12E-05,0.000118185,0.000105292,-45.3628
0.0276367,0.0284668,0.0357448,0.0275565,1.019,0.000191375,-9.08E-05,0.00020009,0.000192218,-47.46252
0.038623,0.0394531,0.0514588,0.0432704,1.319,0.000276489,-0.000184406,0.000289229,0.000273109,-66.6956
0.0489746,0.0498047,0.0644452,0.0562569,1.619,0.000338592,-0.000215464,0.000334097,0.000313992,-63.6353
0.0597168,0.0605469,0.0794935,0.0713052,1.919,0.000410517,-0.000180972,0.000413854,0.000405567,-44.0839
0.070166,0.0709961,0.09690282,0.08871447,2.219,0.000508561,-0.000230596,0.00051293,0.00049194,-45.3428
0.0810059,0.08183594,0.108883,0.100694,2.519,0.000626023,-0.000297728,0.000627916,0.000589648,-47.5586
0.0907715,0.0916016,0.12183,0.113641,2.819,0.000737743,-0.000383451,0.000737131,0.000685986,-51.9762
0.101318,0.102148,0.136331,0.128143,3.119,0.000827166,-0.000439044,0.000842203,0.000817061,-53.0781
0.111426,0.112256,0.15203,0.143841,3.419,0.000938678,-0.000510932,0.000945927,0.000904962,-54.431
0.122119,0.122949,0.163327,0.155139,3.719,0.000995236,-0.000557126,0.00101312,0.000978964,-55.9793
0.13252,0.13335,0.18152,0.173332,4.019,0.00107821,-0.000610412,0.00108841,0.0010876,-56.6135
0.141895,0.142725,0.193122,0.184934,4.319,0.00114717,-0.000658764,0.00117677,0.0011517,-57.4251
0.152344,0.153174,0.209605,0.201417,4.619,0.00126843,-0.0007026,0.00126381,0.00124093,-55.3913
0.163281,0.164111,0.220958,0.21277,4.919,0.00135213,-0.000752638,0.00134613,0.00132492,-55.6631
0.17251,0.17334,0.231669,0.22348,5.219,0.0014484,-0.000724328,0.00144894,0.00145002,-50.0088
0.182324,0.183154,0.244897,0.236709,5.519,0.00153563,-0.000793958,0.00158189,0.00155767,-51.7024
0.19292,0.19375,0.261101,0.252912,5.819,0.00164672,-0.000822444,0.00166598,0.00164967,-49.9444
0.203223,0.204053,0.273687,0.265499,6.119,0.0017256,-0.000889662,0.00174554,0.00175991,-51.5567
0.212744,0.213574,0.280647,0.272459,6.419,0.00180126,-0.000882123,0.0018337,0.0018284,-48.9726
0.222363,0.223193,0.297374,0.289186,6.719,0.00189761,-0.000975592,0.00190493,0.0018707,-51.4116
0.233301,0.234131,0.310132,0.301943,7.019,0.00194887,-0.00101108,0.00195263,0.00195185,-51.8803
0.243066,0.243896,0.322097,0.313909,7.319,0.00210089,-0.00107864,0.00210033,0.00208957,-51.3421
0.252441,0.253271,0.333569,0.325381,7.619,0.00220098,-0.0011447,0.0022096,0.00218265,-52.0087
0.262646,0.263477,0.343958,0.335769,7.919,0.00233393,-0.00117064,0.00233588,0.0022862,-50.1575
0.272656,0.273486,0.357452,0.349264,8.219,0.00240258,-0.00119937,0.0024206,0.00240755,-49.9201
0.282813,0.283643,0.367541,0.359352,8.519,0.00247814,-0.00118619,0.00252902,0.00250354,-47.8661
0.292773,0.293604,0.381698,0.373509,8.819,0.00257256,-0.0012455,0.00259145,0.0025822,-48.4148
0.302539,0.303369,0.390371,0.382183,9.119,0.00266331,-0.00129881,0.0026767,0.0026328,-48.7668
0.312744,0.313574,0.40656,0.398372,9.419,0.00275969,-0.00135903,0.00276472,0.00276379,-49.2457
0.322949,0.323779,0.415465,0.407276,9.719,0.00286046,-0.00140912,0.00287953,0.00285504,-49.262
0.333057,0.333887,0.428736,0.420548,10.019,0.00296416,-0.00145495,0.00296419,0.00294647,-49.0847
0.342236,0.343066,0.439269,0.431081,10.319,0.00305956,-0.00147892,0.00306758,0.00304675,-48.3377
0.352588,0.353418,0.448373,0.440185,10.619,0.00313919,-0.00154818,0.00317845,0.00317174,-49.3178
0.36333,0.36416,0.464976,0.456788,10.919,0.00323597,-0.00160722,0.00327006,0.0032612,-49.6673
0.372412,0.373242,0.469214,0.461026,11.219,0.00330794,-0.00164381,0.00333076,0.00331013,-49.6929
0.3822754,0.383105,0.482076,0.473887,11.519,0.00336091,-0.0016831,0.00337232,0.0033893,-50.0787
0.392871,0.393701,0.492332,0.484144,11.819,0.00346593,-0.00170112,0.00347922,0.00346308,-49.0812
0.403076,0.403906,0.50304,0.494852,12.119,0.00363631,-0.00169685,0.00361719,0.00357836,-46.6641
0.412695,0.413525,0.513336,0.505148,12.419,0.00375329,-0.00174129,0.00373616,0.00368378,-46.3937
0.422314,0.423145,0.522633,0.514445,12.719,0.00384936,-0.00180621,0.0038522,0.00381947,-46.9223
0.433301,0.434131,0.532939,0.524751,13.019,0.00395307,-0.00186496,0.00397867,0.00390802,-47.1775
0.443115,0.443945,0.544919,0.53673,13.319,0.00402879,-0.00189137,0.00406361,0.00403075,-46.9464
0.452588,0.453418,0.553137,0.544948,13.619,0.00413301,-0.00190482,0.00416266,0.00415349,-46.088
0.462939,0.46377,0.563597,0.555409,13.919,0.00421108,-0.00194947,0.00424266,0.00422889,-46.2938
0.472998,0.473828,0.571685,0.563497,14.219,0.00433698,-0.00202752,0.00433376,0.00432246,-46.7496
0.483105,0.483936,0.583013,0.574825,14.519,0.00445351,-0.00205181,0.00443854,0.00439761,-46.0717
0.493018,0.493848,0.598344,0.590155,14.819,0.00452706,-0.0020816,0.00457864,0.00452498,-45.9813
0.502734,0.503564,0.601126,0.592937,15.119,0.00463897,-0.00212226,0.00466941,0.00464371,-45.7485
0.512939,0.51377,0.612109,0.603921,15.419,0.00470898,-0.0021548,0.00474839,0.00474907,-45.7594
0.523145,0.523975,0.622918,0.614729,15.719,0.00479086,-0.00218448,0.00483704,0.00485589,-45.5968
0.533252,0.534082,0.628836,0.620648,16.019,0.00489765,-0.00222183,0.00494078,0.00493413,-45.3652
0.542334,0.543164,0.638157,0.629968,16.319,0.00501888,-0.00231015,0.00501815,0.00500393,-46.0292
0.552686,0.553516,0.646543,0.638354,16.619,0.00508678,-0.00231602,0.00506851,0.00505473,-45.5302
0.563428,0.564258,0.659484,0.651296,16.919,0.00522259,-0.00237683,0.00519448,0.00517073,-45.5106
0.57251,0.57334,0.665256,0.657068,17.219,0.00533017,-0.0024209,0.00530485,0.0052814,-45.4188
0.582275,0.583105,0.672217,0.664029,17.519,0.00543262,-0.00246539,0.00543336,0.00538777,-45.3812
0.592871,0.593701,0.68173,0.673542,17.819,0.00552466,-0.00247945,0.00553907,0.0055163,-44.8797
0.603076,0.603906,0.690067,0.681878,18.119,0.00560103,-0.00250007,0.00566269,0.00560423,-44.6359
0.612646,0.613477,0.696795,0.688607,18.419,0.0057089,-0.0025349,0.00571959,0.00569041,-44.4026
0.622266,0.623096,0.706503,0.698315,18.719,0.00579986,-0.00255291,0.00579236,0.005775,-44.0168
0.633301,0.634131,0.714177,0.705989,19.019,0.00592234,-0.00259127,0.00592517,0.00589991,-43.7542
0.643115,0.643945,0.722556,0.714367,19.319,0.00599956,-0.00263931,0.00598691,0.00597953,-43.9917
0.652539,0.653369,0.731272,0.723083,19.619,0.00611969,-0.00270892,0.00613606,0.00609459,-44.2656
0.662793,0.663623,0.739858,0.73167,19.919,0.00615639,-0.00274399,0.00618988,0.00618501,-44.5714
0.672656,0.673486,0.746712,0.738523,20.219,0.00626843,-0.00273668,0.00634141,0.00632236,-43.6581
0.682715,0.683545,0.751518,0.743329,20.519,0.00634752,-0.00278186,0.00638393,0.00638289,-43.8259
0.692529,0.693359,0.759164,0.750975,20.819,0.00645461,-0.00282618,0.00645821,0.00647202,-43.7854
0.702295,0.703125,0.765708,0.75752,21.119,0.0065775,-0.00284046,0.00657677,0.00655869,-43.1845
0.712402,0.713232,0.77163,0.763442,21.419,0.00666899,-0.00286383,0.00662579,0.00660882,-42.9425
0.722656,0.723486,0.779353,0.771164,21.719,0.00681922,-0.00288907,0.00677128,0.00671657,-42.3666
0.732764,0.733594,0.784795,0.776607,22.019,0.00692083,-0.00292676,0.00688549,0.00682365,-42.2891
0.739551,0.740381,-0.009439574,-0.0176279,22.238,0.00699389,-0.00293968,0.00700788,0.00693822,-42.0321