Folder: An-experimental-and-numerical-study-of-the-mechanical-response-of-3D-printed-semicrystalline-polymer/Raw_Data./Tensile Nozzle 0.4 mm/90 Degrees/LH0.1_90D_N0.4

File: Test 1.csv
Crosshead ,Crosshead ini,Load ,Load inin,Time ,Strain 1 ,Strain 2 ,Strain 3 ,Strain 4 ,PoissonRatio ,,,
0,0.000830078,0,0.003110862,0.115,-1.08E-05,-2.13E-05,-2.20E-05,3.14E-06,196.972,-0.000830078,0.000830078,-0.003110862
0.003710938,0.004541016,0.001870623,0.004981485,0.315,1.11E-05,4.30E-05,-4.14E-05,-1.76E-05,387.128,-0.000830078,,-0.003110862
0.009716797,0.0105469,0.00724689,0.0103578,0.515,-1.64E-05,-4.28E-05,1.10E-05,1.07E-05,261.482,-0.000830078,,-0.003110862
0.0164063,0.0172363,0.0163209,0.0194318,0.715,5.20E-05,-4.79E-05,5.86E-05,9.32E-05,-92.17,-0.000830078,,-0.003110862
0.0233887,0.0242188,0.0243457,0.0274566,0.915,0.000109588,-9.97E-05,8.26E-05,0.000104694,-90.9494,-0.000830078,,-0.003110862
0.03129883,0.0321289,0.03615466,0.0392655,1.115,0.000128621,-0.00013725,0.000140219,0.000179993,-106.709,-0.000830078,,-0.003110862
0.0384277,0.0392578,0.0465701,0.0496809,1.315,0.000201516,-0.00013496,0.000202647,0.000243706,-66.9724,-0.000830078,,-0.003110862
0.0456055,0.0464355,0.0548728,0.0579836,1.515,0.000241813,-0.000169678,0.000284621,0.000323617,-70.1691,-0.000830078,,-0.003110862
0.0521973,0.0530273,0.0636352,0.0667461,1.715,0.000290183,-0.000219695,0.000304175,0.00032544,-75.7091,-0.000830078,,-0.003110862
0.0595703,0.0604004,0.0751865,0.0782973,1.915,0.000348318,-0.000253042,0.000330262,0.000365632,-72.6468,-0.000830078,,-0.003110862
0.0667969,0.067627,0.0833877,0.0864985,2.115,0.000380131,-0.000292711,0.000403552,0.00042132,-77.0027,-0.000830078,,-0.003110862
0.0737305,0.07456055,0.0899989,0.0931097,2.315,0.000435484,-0.000285632,0.000438113,0.00045923,-65.5896,-0.000830078,,-0.003110862
0.080957,0.0817871,0.100217,0.103327,2.515,0.000498091,-0.000355947,0.000481775,0.000490627,-71.4622,-0.000830078,,-0.003110862
0.0875977,0.0884277,0.107818,0.110929,2.715,0.000546113,-0.000412169,0.000536571,0.000538484,-75.4732,-0.000830078,,-0.003110862
0.09448242,0.0953125,0.119202,0.122313,2.915,0.000630237,-0.000383272,0.000671949,0.000653891,-60.8139,-0.000830078,,-0.003110862
0.101318,0.102148,0.126379,0.12949,3.115,0.000669256,-0.000348561,0.000664407,0.000645664,-52.0819,-0.000830078,,-0.003110862
0.107861,0.108691,0.133041,0.136152,3.315,0.000781553,-0.000514794,0.000796239,0.000788685,-65.8681,-0.000830078,,-0.003110862
0.115088,0.115918,0.142921,0.146032,3.515,0.000814857,-0.000520883,0.000882847,0.00088556,-63.9232,-0.000830078,,-0.003110862
0.122168,0.122998,0.153382,0.156493,3.715,0.000899552,-0.000577935,0.000938548,0.000937649,-64.247,-0.000830078,,-0.003110862
0.129199,0.130029,0.162267,0.165378,3.915,0.000953513,-0.000578344,0.000964916,0.000960972,-60.654,-0.000830078,,-0.003110862
0.135596,0.136426,0.167844,0.170955,4.115,0.000974253,-0.000644585,0.0010158,0.00100536,-66.162,-0.000830078,,-0.003110862
0.141992,0.142822,0.177969,0.18108,4.315,0.00100124,-0.00063833,0.00104397,0.00106302,-63.7539,-0.000830078,,-0.003110862
0.148877,0.149707,0.185655,0.188766,4.515,0.00104765,-0.00067704,0.00108212,0.00109535,-64.6246,-0.000830078,,-0.003110862
0.155957,0.156787,0.192655,0.195765,4.715,0.00110586,-0.000705327,0.00114584,0.00117416,-63.7809,-0.000830078,,-0.003110862
0.163379,0.164209,0.202345,0.205456,4.915,0.00114051,-0.000713185,0.00118331,0.00121487,-62.5321,-0.000830078,,-0.003110862
0.169482,0.170313,0.211735,0.214846,5.115,0.00121588,-0.000780742,0.00124118,0.00126988,-64.2121,-0.000830078,,-0.003110862
0.175781,0.176611,0.218641,0.221752,5.315,0.00126527,-0.000736006,0.00126383,0.00128534,-58.1699,-0.000830078,,-0.003110862
0.182373,0.183203,0.224989,0.2281,5.515,0.00130973,-0.00078849,0.00132766,0.00135957,-60.2025,-0.000830078,,-0.003110862
0.18916,0.18999,0.234007,0.237117,5.715,0.00136306,-0.000803095,0.00139152,0.00142523,-58.9185,-0.000830078,,-0.003110862
0.196777,0.197607,0.244398,0.247509,5.915,0.00145897,-0.000853978,0.00149218,0.00153104,-58.5329,-0.000830078,,-0.003110862
0.203271,0.204102,0.250381,0.253492,6.115,0.00153167,-0.000893613,0.00159504,0.00163388,-58.3424,-0.000830078,,-0.003110862
0.209473,0.210303,0.259029,0.26214,6.315,0.00159124,-0.000856386,0.00161142,0.00164441,-53.8188,-0.000830078,,-0.003110862
0.215869,0.216699,0.264894,0.268004,6.515,0.00161187,-0.00096177,0.00164025,0.00168483,-59.668,-0.000830078,,-0.003110862
0.222412,0.223242,0.272842,0.275952,6.715,0.00165372,-0.000973884,0.00167531,0.00171471,-58.8905,-0.000830078,,-0.003110862
0.229736,0.230566,0.281273,0.284384,6.915,0.00167541,-0.000969947,0.00174264,0.00178375,-57.8931,-0.000830078,,-0.003110862
0.236475,0.237305,0.287986,0.291097,7.115,0.0017385,-0.000977222,0.00181947,0.00183944,-56.2106,-0.000830078,,-0.003110862
0.243164,0.243994,0.295383,0.298494,7.315,0.00185137,-0.00113054,0.00185843,0.00188718,-61.065,-0.000830078,,-0.003110862
0.249316,0.250146,0.302798,0.3059086,7.515,0.00185825,-0.00114622,0.00192645,0.0019358,-61.6828,-0.000830078,,-0.003110862
0.255762,0.256592,0.30627,0.309381,7.715,0.00195019,-0.00112363,0.00202713,0.00204098,-57.6164,-0.000830078,,-0.003110862
0.262744,0.263574,0.316159,0.31927,7.915,0.00203382,-0.00116467,0.00209249,0.00210356,-57.2651,-0.000830078,,-0.003110862
0.269287,0.270117,0.322115,0.325226,8.115,0.00210047,-0.00125805,0.00213532,0.00213792,-59.8937,-0.000830078,,-0.003110862
0.276172,0.277002,0.331955,0.335065,8.315,0.00211076,-0.00117489,0.00218276,0.0021835,-55.6619,-0.000830078,,-0.003110862
0.28291,0.28374,0.334803,0.337914,8.515,0.00219782,-0.00123627,0.00225768,0.00226523,-56.2498,-0.000830078,,-0.003110862
0.289355,0.290186,0.344637,0.347748,8.715,0.00225306,-0.00121683,0.00233871,0.00234446,-54.0079,-0.000830078,,-0.003110862
0.296289,0.297119,0.352127,0.355238,8.915,0.00231961,-0.00120087,0.00237635,0.00239441,-51.7703,-0.000830078,,-0.003110862
0.302588,0.303418,0.357046,0.360156,9.115,0.00236472,-0.00126191,0.00243685,0.00245305,-53.364,-0.000830078,,-0.003110862
0.30918,0.31001,0.365424,0.368535,9.315,0.00240882,-0.00129108,0.00247654,0.00249982,-53.598,-0.000830078,,-0.003110862
0.316162,0.316992,0.370237,0.373348,9.515,0.00246377,-0.00133015,0.00252403,0.00254717,-53.9884,-0.000830078,,-0.003110862
0.323047,0.323877,0.379125,0.382235,9.715,0.00250164,-0.0013484,0.00256675,0.00258598,-53.9006,-0.000830078,,-0.003110862
0.329785,0.330615,0.386972,0.390083,9.915,0.0025751,-0.00137797,0.00263765,0.00267288,-53.5113,-0.000830078,,-0.003110862
0.335986,0.336816,0.392795,0.395906,10.115,0.00262055,-0.00140887,0.00272901,0.00271555,-53.7624,-0.000830078,,-0.003110862
0.342285,0.343115,0.400554,0.403665,10.315,0.00269941,-0.00143529,0.00274714,0.00278106,-53.1705,-0.000830078,,-0.003110862
0.349121,0.349951,0.406655,0.409766,10.515,0.00275356,-0.00145141,0.00282213,0.00286927,-52.7103,-0.000830078,,-0.003110862
0.356055,0.356885,0.411429,0.41454,10.715,0.00281637,-0.0014818,0.00287704,0.0029247,-52.6138,-0.000830078,,-0.003110862
0.363379,0.364209,0.421838,0.424949,10.915,0.00288923,-0.0015152,0.00292548,0.00297198,-52.443,-0.000830078,,-0.003110862
0.369385,0.370215,0.423818,0.426928,11.115,0.00292442,-0.00153209,0.00297577,0.00302124,-52.3895,-0.000830078,,-0.003110862
0.375732,0.376563,0.430582,0.433693,11.315,0.00297456,-0.00156513,0.00302955,0.0030881,-52.6172,-0.000830078,,-0.003110862
0.382324,0.383154,0.435355,0.438466,11.515,0.00301711,-0.00158498,0.00307585,0.0031361,-52.5331,-0.000830078,,-0.003110862
0.389111,0.389941,0.441826,0.444937,11.715,0.00308106,-0.001596,0.00314584,0.00318972,-51.8004,-0.000830078,,-0.003110862
0.39668,0.39751,0.449179,0.45229,11.915,0.00312391,-0.00162593,0.00319129,0.00324378,-52.0479,-0.000830078,,-0.003110862
0.403174,0.404004,0.453933,0.457044,12.115,0.00320338,-0.00160887,0.00326542,0.00331977,-50.2241,-0.000830078,,-0.003110862
0.409424,0.410254,0.459564,0.462675,12.315,0.00325763,-0.0016725,0.00330765,0.00334048,-51.341,-0.000830078,,-0.003110862
0.41582,0.41665,0.465253,0.468364,12.515,0.00331994,-0.00167868,0.00336921,0.00340265,-50.5636,-0.000830078,,-0.003110862
0.422363,0.423193,0.46763,0.470741,12.715,0.0033713,-0.00169305,0.00339065,0.00340839,-50.2195,-0.000830078,,-0.003110862
0.429736,0.430566,0.476272,0.479383,12.915,0.00344316,-0.00172389,0.00352647,0.00354586,-50.0671,-0.000830078,,-0.003110862
0.436426,0.437256,0.479358,0.482468,13.115,0.00353971,-0.00176193,0.00362494,0.00363221,-49.7761,-0.000830078,,-0.003110862
0.443262,0.444092,0.485234,0.488344,13.315,0.00353507,-0.00179279,0.00363592,0.00365086,-50.7144,-0.000830078,,-0.003110862
0.449414,0.450244,0.489936,0.493047,13.515,0.00370352,-0.0018101,0.00379146,0.0038053,-48.8751,-0.000830078,,-0.003110862
0.456006,0.456836,0.491898,0.495009,13.715,0.00368526,-0.00181586,0.00378821,0.00381228,-49.2736,-0.000830078,,-0.003110862
0.463037,0.463867,0.499873,0.502984,13.915,0.00376148,-0.00184222,0.00389283,0.00394095,-48.9759,-0.000830078,,-0.003110862
0.46958,0.47041,0.504339,0.50745,14.115,0.00376999,-0.0018824,0.00387598,0.00389756,-49.9312,-0.000830078,,-0.003110862
0.476514,0.477344,0.509735,0.512846,14.315,0.00386792,-0.00191818,0.00395806,0.00398158,-49.592,-0.000830078,,-0.003110862
0.483203,0.484033,0.516719,0.51983,14.515,0.0038969,-0.0019593,0.00398701,0.00402519,-50.2784,-0.000830078,,-0.003110862
0.489648,0.490479,0.521822,0.524933,14.715,0.00392151,-0.00196406,0.00401898,0.00406698,-50.0843,-0.000830078,,-0.003110862
0.496533,0.497363,0.524384,0.527495,14.915,0.0039962,-0.00198832,0.00407018,0.00412411,-49.7553,-0.000830078,,-0.003110862
0.502783,0.503613,0.527973,0.531083,15.115,0.00405436,-0.00198052,0.00410806,0.00414843,-48.8491,-0.000830078,,-0.003110862
0.509375,0.510205,0.533754,0.536864,15.315,0.00407846,-0.00199129,0.00415432,0.00420092,-48.8246,-0.000830078,,-0.003110862
0.516309,0.517139,0.536153,0.539263,15.515,0.00419852,-0.00196982,0.00426982,0.004305,-46.917,-0.000830078,,-0.003110862
0.523193,0.524023,0.539055,0.542166,15.715,0.00424269,-0.0020392,0.00430594,0.004366,-48.0638,-0.000830078,,-0.003110862
0.529932,0.530762,0.542225,0.545336,15.915,0.00426651,-0.00205629,0.00433234,0.00437403,-48.1961,-0.000830078,,-0.003110862
0.533545,0.534375,0.0194626,0.0225735,16.022,0.00429608,-0.00207896,0.00433324,0.00436419,-48.392,-0.000830078,,-0.003110862

File: Test 4.csv
Crosshead ,Crosshead ini,Load ,Load ini,Time ,Strain 1 ,Strain 2 ,Strain 3 ,Strain 4 ,PoissonRatio ,,,
0,0.000878906,0,-0.04996772,0.116,1.96E-05,6.03E-05,4.97E-06,-5.71E-06,307.832,-0.000878906,0.000878906,0.04996772
0.00390625,0.004785156,0.001712978,-0.0482547,0.316,2.84E-05,3.01E-05,2.26E-06,4.57E-07,106.084,-0.000878906,,0.04996772
0.0100098,0.0108887,0.0115036,-0.0384641,0.516,5.16E-05,2.89E-05,2.67E-05,1.20E-05,55.9828,-0.000878906,,0.04996772
0.0166992,0.0175781,0.0201574,-0.0298104,0.716,9.53E-05,8.59E-06,7.82E-05,6.02E-05,9.01132,-0.000878906,,0.04996772
0.02368164,0.0245605,0.029903,-0.0200647,0.916,0.000132988,-1.06E-05,0.000120028,0.00011168,-8.00719,-0.000878906,,0.04996772
0.0316406,0.0325195,0.0387528,-0.0112149,1.116,0.000220054,-3.17E-05,0.000215708,0.000201681,-14.4168,-0.000878906,,0.04996772
0.0387207,0.03959961,0.04745969,-0.00250803,1.316,0.000303063,-5.17E-05,0.00029703,0.000285024,-17.0647,-0.000878906,,0.04996772
0.0458496,0.0467285,0.0553177,0.005349951,1.516,0.000338062,-9.31E-05,0.000323793,0.000317482,-27.5439,-0.000878906,,0.04996772
0.0523926,0.0532715,0.0672757,0.017308,1.716,0.000399761,-0.000128216,0.000381914,0.000366198,-32.0732,-0.000878906,,0.04996772
0.0597168,0.0605957,0.075702,0.0257343,1.916,0.000440545,-0.00012645,0.000412633,0.000401072,-28.7031,-0.000878906,,0.04996772
0.0669922,0.0678711,0.0810211,0.0310534,2.116,0.000494217,-7.81E-05,0.000482573,0.000464751,-15.8128,-0.000878906,,0.04996772
0.0738281,0.07470703,0.0922571,0.0422894,2.316,0.000565545,-8.54E-05,0.000550444,0.000536588,-15.099,-0.000878906,,0.04996772
0.0810547,0.0819336,0.0996315,0.0496638,2.516,0.000647963,-9.23E-05,0.000625026,0.000615833,-14.2431,-0.000878906,,0.04996772
0.0875977,0.0884766,0.108203,0.0582354,2.716,0.000721307,-0.000100917,0.000693056,0.000681162,-13.9909,-0.000878906,,0.04996772
0.09453125,0.0954102,0.114849,0.0648814,2.916,0.000820564,-0.000119643,0.00079067,0.000773534,-14.5806,-0.000878906,,0.04996772
0.101318,0.102197,0.12558,0.0756125,3.116,0.000896018,-0.000134741,0.000835641,0.000810167,-15.0378,-0.000878906,,0.04996772
0.10791,0.108789,0.133413,0.0834452,3.316,0.000969366,-0.000162279,0.00091877,0.000907164,-16.7407,-0.000878906,,0.04996772
0.115088,0.115967,0.143536,0.0935684,3.516,0.00100207,-0.00018959,0.000987663,0.000966448,-18.9198,-0.000878906,,0.04996772
0.122168,0.123047,0.14937,0.0994021,3.716,0.000981972,-0.000216062,0.000995438,0.00101818,-22.0029,-0.000878906,,0.04996772
0.12915,0.130029,0.158931,0.108964,3.916,0.00103844,-0.000217655,0.00106215,0.0010894,-20.9598,-0.000878906,,0.04996772
0.135547,0.136426,0.167194,0.117227,4.116,0.00110261,-0.000279888,0.00110415,0.00111275,-25.3841,-0.000878906,,0.04996772
0.141943,0.142822,0.17271,0.122743,4.316,0.00116006,-0.000227386,0.00117117,0.001181,-19.6012,-0.000878906,,0.04996772
0.148828,0.149707,0.181544,0.131577,4.516,0.00118879,-0.000284135,0.00118139,0.00119448,-23.9012,-0.000878906,,0.04996772
0.155908,0.156787,0.188454,0.138486,4.716,0.00127794,-0.000316471,0.00126799,0.00127465,-24.7642,-0.000878906,,0.04996772
0.16333,0.164209,0.198756,0.148788,4.916,0.00132853,-0.00027572,0.00131921,0.00132649,-20.7538,-0.000878906,,0.04996772
0.169434,0.170313,0.207585,0.157618,5.116,0.00140622,-0.000346686,0.00139412,0.00140321,-24.6538,-0.000878906,,0.04996772
0.175732,0.176611,0.215536,0.165568,5.316,0.00145354,-0.000328862,0.0014534,0.00146521,-22.6249,-0.000878906,,0.04996772
0.182324,0.183203,0.219889,0.169921,5.516,0.00152526,-0.00035434,0.00152697,0.00153627,-23.2314,-0.000878906,,0.04996772
0.189111,0.18999,0.227966,0.177998,5.716,0.00163069,-0.000260922,0.00162148,0.00162278,-16.0007,-0.000878906,,0.04996772
0.196777,0.197656,0.23601,0.186043,5.916,0.00168104,-0.000259203,0.00165348,0.00165405,-15.4192,-0.000878906,,0.04996772
0.203223,0.204102,0.247576,0.197609,6.116,0.00175277,-0.000351763,0.00172039,0.00172609,-20.069,-0.000878906,,0.04996772
0.209424,0.210303,0.253539,0.203572,6.316,0.0017907,-0.000339385,0.00175004,0.00176483,-18.9526,-0.000878906,,0.04996772
0.215869,0.216748,0.263668,0.2137,6.516,0.00184483,-0.000320735,0.0018442,0.00184898,-17.3856,-0.000878906,,0.04996772
0.222363,0.223242,0.269657,0.219689,6.716,0.00189557,-0.000346343,0.00190509,0.00192558,-18.2712,-0.000878906,,0.04996772
0.229736,0.230615,0.277293,0.227325,6.916,0.00195969,-0.000422696,0.00194698,0.00195312,-21.5695,-0.000878906,,0.04996772
0.236426,0.237305,0.283171,0.233203,7.116,0.0019848,-0.000444711,0.00197158,0.00198412,-22.4058,-0.000878906,,0.04996772
0.243115,0.243994,0.292957,0.24299,7.316,0.0020759,-0.000415543,0.00204156,0.00204566,-20.0175,-0.000878906,,0.04996772
0.249268,0.250146,0.297301,0.247333,7.516,0.0021504,-0.000417778,0.00211163,0.00212183,-19.4279,-0.000878906,,0.04996772
0.255713,0.256592,0.305956,0.255988,7.716,0.00222002,-0.000428784,0.00219567,0.00220381,-19.3144,-0.000878906,,0.04996772
0.262695,0.263574,0.31283,0.262862,7.916,0.00228525,-0.000436724,0.002262,0.00226334,-19.1106,-0.000878906,,0.04996772
0.269238,0.270117,0.316497,0.26653,8.116,0.00236991,-0.000444982,0.00234406,0.00234461,-18.7763,-0.000878906,,0.04996772
0.276123,0.277002,0.32556,0.275592,8.316,0.00244936,-0.000445716,0.00242802,0.00242969,-18.1972,-0.000878906,,0.04996772
0.282861,0.28374,0.334881,0.284914,8.516,0.00250247,-0.000504752,0.00249048,0.00250125,-20.1702,-0.000878906,,0.04996772
0.289307,0.290186,0.339937,0.289969,8.716,0.0025611,-0.000494633,0.00254186,0.00254514,-19.3133,-0.000878906,,0.04996772
0.29624,0.297119,0.347663,0.297695,8.916,0.00262655,-0.000515957,0.00261008,0.00262021,-19.6439,-0.000878906,,0.04996772
0.302539,0.303418,0.351989,0.302021,9.116,0.00268631,-0.000498124,0.00267969,0.00270455,-18.5431,-0.000878906,,0.04996772
0.30918,0.310059,0.359596,0.309629,9.316,0.00273525,-0.000472712,0.00273439,0.00275606,-17.2822,-0.000878906,,0.04996772
0.316162,0.317041,0.368959,0.318991,9.516,0.00279801,-0.000461963,0.00280226,0.00282256,-16.5104,-0.000878906,,0.04996772
0.323047,0.323926,0.374848,0.32488,9.716,0.00286138,-0.000503642,0.00285221,0.00288049,-17.6014,-0.000878906,,0.04996772
0.329785,0.330664,0.383844,0.333876,9.916,0.0029637,-0.000491594,0.00294884,0.00297169,-16.5872,-0.000878906,,0.04996772
0.335986,0.336865,0.388363,0.338395,10.116,0.00305428,-0.000501031,0.00299403,0.00301361,-16.4042,-0.000878906,,0.04996772
0.342285,0.343164,0.394503,0.344535,10.316,0.00311468,-0.000495451,0.00306193,0.00307437,-15.907,-0.000878906,,0.04996772
0.349121,0.35,0.399493,0.349525,10.516,0.00315367,-0.000546796,0.0031464,0.00316685,-17.3384,-0.000878906,,0.04996772
0.356055,0.356934,0.405263,0.355296,10.716,0.00322603,-0.000529843,0.00321186,0.00323624,-16.424,-0.000878906,,0.04996772
0.363379,0.364258,0.417018,0.36705,10.916,0.00330987,-0.000555477,0.00330881,0.00333588,-16.7824,-0.000878906,,0.04996772
0.369385,0.370264,0.419889,0.369922,11.116,0.00334513,-0.000572755,0.00333746,0.00336051,-17.1221,-0.000878906,,0.04996772
0.375732,0.376611,0.429234,0.379267,11.316,0.00341073,-0.000551184,0.00341729,0.00342988,-16.1603,-0.000878906,,0.04996772
0.382324,0.383203,0.434698,0.384731,11.516,0.00342194,-0.000582368,0.00343066,0.0034434,-17.0187,-0.000878906,,0.04996772
0.389111,0.38999,0.441133,0.391165,11.716,0.00353543,-0.000631331,0.00351475,0.00353181,-17.8573,-0.000878906,,0.04996772
0.396729,0.397607,0.444365,0.394397,11.916,0.00360473,-0.000628224,0.00355102,0.00355753,-17.6054,-0.000878906,,0.04996772
0.403174,0.404053,0.4519394,0.401972,12.116,0.00366318,-0.000605646,0.00364295,0.003659,-16.5333,-0.000878906,,0.04996772
0.409424,0.410303,0.454388,0.40442,12.316,0.00371775,-0.000578749,0.0036918,0.00369925,-15.5672,-0.000878906,,0.04996772
0.41582,0.416699,0.461047,0.41108,12.516,0.00383177,-0.000588108,0.0037945,0.00379568,-15.3482,-0.000878906,,0.04996772
0.422363,0.423242,0.463923,0.413955,12.716,0.0039225,-0.000584563,0.00387473,0.00387797,-14.9028,-0.000878906,,0.04996772
0.429736,0.430615,0.473893,0.423926,12.916,0.00393085,-0.00057647,0.00387044,0.0038752,-14.6653,-0.000878906,,0.04996772
0.436426,0.437305,0.477181,0.427213,13.116,0.00406785,-0.000545342,0.0039997,0.00399169,-13.4061,-0.000878906,,0.04996772
0.443213,0.444092,0.482586,0.432618,13.316,0.00410195,-0.0005583,0.00407222,0.00407215,-13.6106,-0.000878906,,0.04996772
0.449365,0.450244,0.489567,0.4396,13.516,0.00414039,-0.000590852,0.00413594,0.00414393,-14.2704,-0.000878906,,0.04996772
0.455957,0.456836,0.493601,0.443633,13.716,0.00419823,-0.000561922,0.0041935,0.0042005,-13.3847,-0.000878906,,0.04996772
0.462988,0.463867,0.496343,0.446375,13.916,0.00425933,-0.000588018,0.00424261,0.00422453,-13.8054,-0.000878906,,0.04996772
0.464502,0.465381,0.0775547,0.027587,13.959,0.00430513,-0.000588018,0.00424261,0.00422453,-13.6585,-0.000878906,,0.04996772