Folder: An-experimental-and-numerical-study-of-the-mechanical-response-of-3D-printed-semicrystalline-polymer/Raw_Data./Tensile Nozzle 0.4 mm/45 Degrees/LH0.05_45D_N0.4/4/Test Run 1 02-21-20 12 28 42 PM

File: DAQ- Crosshead, … - (Timed).txt
File Path: C:\Users\MTS 300\Desktop\robin\eprouvette 45 lh005\test 4\Test Run 1 02-21-20 12 28 42 PM\DAQ- Crosshead, … - (Timed).txt
Test: Tensile test LEI 12
Test Run: Test Run 1
Date: 21/02/2020 12:19:54

Crosshead 	Load 	Time 	Strain 1 	Strain 2
mm	kN	sec	mm/mm	mm/mm
0.00385742	0.00432309	0.114	3.30251e-05	-2.82306e-05
0.0177246	0.0164261	0.314	8.74095e-05	-4.6524e-05
0.0340332	0.0355223	0.514	0.000209525	-5.01027e-05
0.0516602	0.0506012	0.714	0.000347512	-0.000126862
0.0692383	0.0683545	0.914	0.00045087	-0.000169425
0.0868164	0.0856342	1.114	0.000607602	-0.000154985
0.104443	0.10267	1.314	0.000769049	-0.000164457
0.121924	0.120581	1.514	0.000946506	-0.000232621
0.139697	0.135461	1.714	0.00112141	-0.00033889
0.156641	0.156363	1.914	0.00133544	-0.000399223
0.173877	0.16912	2.114	0.00153388	-0.000438616
0.190723	0.186751	2.314	0.00164032	-0.000567741
0.20752	0.204868	2.514	0.00182359	-0.000553812
0.224805	0.220869	2.714	0.00194263	-0.000648063
0.241016	0.235047	2.914	0.00210704	-0.000665379
0.258398	0.251913	3.114	0.00222279	-0.000699487
0.274658	0.265883	3.314	0.00242208	-0.000723446
0.292139	0.281611	3.514	0.00256157	-0.000770583
0.308594	0.296295	3.714	0.00272951	-0.000869989
0.325488	0.310141	3.914	0.00289818	-0.000914851
0.342041	0.326416	4.114	0.00309114	-0.00100407
0.358691	0.339451	4.314	0.00328059	-0.0010599
0.375684	0.355043	4.514	0.00340362	-0.00116116
0.39248	0.369145	4.714	0.00357419	-0.00123374
0.408936	0.381718	4.914	0.00372721	-0.00130214
0.42583	0.397272	5.114	0.00387152	-0.0013363
0.442188	0.410384	5.314	0.00402108	-0.00142229
0.459863	0.424336	5.514	0.00421509	-0.00137451
0.475928	0.435768	5.714	0.00435966	-0.00143568
0.493164	0.448359	5.914	0.00453592	-0.00148952
0.509131	0.465425	6.114	0.00468252	-0.00151918
0.526025	0.475397	6.314	0.00484092	-0.00159179
0.542529	0.489263	6.514	0.00494811	-0.0016093
0.559082	0.499159	6.714	0.00512197	-0.00177493
0.575781	0.51362	6.914	0.00533502	-0.00185998
0.592383	0.527764	7.114	0.00548506	-0.00193346
0.608887	0.539094	7.314	0.00569356	-0.00197003
0.626123	0.551931	7.514	0.00587962	-0.00199685
0.642285	0.564669	7.714	0.006029	-0.00201024
0.65957	0.57441	7.914	0.00613014	-0.00201721
0.675586	0.585264	8.114	0.00631575	-0.00211352
0.69292	0.598034	8.314	0.0064475	-0.00214388
0.709082	0.609843	8.514	0.00664631	-0.00219289
0.725977	0.62359	8.714	0.0067679	-0.00227623
0.742383	0.631459	8.914	0.00697712	-0.00235372
0.759033	0.646381	9.114	0.00718408	-0.00238952
0.775879	0.655498	9.314	0.00729466	-0.00245786
0.792627	0.665269	9.514	0.00742121	-0.00252516
0.80918	0.675142	9.714	0.00756275	-0.00254473
0.826172	0.688433	9.914	0.00777982	-0.00257881
0.842383	0.698001	10.114	0.00793731	-0.00263423
0.859863	0.70759	10.314	0.00816232	-0.00270283
0.87583	0.718677	10.514	0.0083372	-0.00270792
0.892969	0.729957	10.714	0.00847296	-0.00272585
0.908984	0.741701	10.914	0.00862836	-0.00280389
0.925928	0.750416	11.114	0.00876667	-0.002892
0.942578	0.762099	11.314	0.00893076	-0.00295062
0.959326	0.769789	11.514	0.00907566	-0.00303363
0.976172	0.780584	11.714	0.00925728	-0.00310921
0.992871	0.790083	11.914	0.00939197	-0.00305088
1.00933	0.802392	12.114	0.00953764	-0.00315781
1.02637	0.811382	12.314	0.00969523	-0.00319057
1.04248	0.820668	12.514	0.00991608	-0.00326508
1.05977	0.831777	12.714	0.0100933	-0.00334292
1.07568	0.842176	12.914	0.0102868	-0.00336203
1.09312	0.850683	13.114	0.010413	-0.00340904
1.10928	0.861095	13.314	0.0105998	-0.0034384
1.12627	0.867865	13.514	0.0106709	-0.00345759
1.14277	0.878834	13.714	0.0108904	-0.00363451
1.15962	0.887633	13.914	0.0111036	-0.00366424
1.17637	0.897317	14.114	0.0112926	-0.00372316
1.19297	0.903552	14.314	0.0114825	-0.00375546
1.20923	0.915442	14.514	0.0116016	-0.00375206
1.22612	0.924903	14.714	0.0117731	-0.00378299
1.24229	0.93061	14.914	0.0118398	-0.0038319
1.25977	0.939139	15.114	0.0119828	-0.00387164
1.27573	0.948353	15.314	0.0121497	-0.00396259
1.29297	0.95879	15.514	0.0123625	-0.00403099
1.30903	0.966659	15.714	0.0125365	-0.00405986
1.32603	0.974128	15.914	0.0128004	-0.00409708
1.34272	0.985652	16.114	0.0129993	-0.00423095
1.35928	0.994704	16.314	0.0130892	-0.00425422
1.37598	1.00005	16.514	0.0132543	-0.00427788
1.39263	1.00889	16.714	0.0134182	-0.00431755
1.40903	1.01639	16.914	0.0135703	-0.00440024
1.42612	1.02366	17.114	0.0137516	-0.00442466
1.44233	1.03332	17.314	0.0139357	-0.00449861
1.45967	1.0394	17.514	0.0140753	-0.00458567
1.47568	1.04626	17.714	0.0141931	-0.00462634
1.49307	1.05392	17.914	0.0144055	-0.00466887
1.50923	1.05947	18.114	0.0146045	-0.00477932
1.52612	1.06779	18.314	0.014809	-0.00481073
1.54248	1.07557	18.514	0.014968	-0.00485357
1.55913	1.08187	18.714	0.0151319	-0.00491906
1.57598	1.08955	18.914	0.015349	-0.00494256
1.59277	1.0974	19.114	0.0155209	-0.0049839
1.60918	1.10143	19.314	0.0156937	-0.00505529
1.62607	1.10897	19.514	0.0159219	-0.00512437
1.64229	1.11476	19.714	0.0160826	-0.00521687
1.65991	1.11929	19.914	0.0162622	-0.00523163
1.67603	1.12507	20.114	0.0164428	-0.00533307
1.69331	1.13079	20.314	0.0165766	-0.00539749
1.70928	1.1352	20.514	0.016697	-0.00545368
1.72617	1.14156	20.714	0.0169308	-0.00546083
1.74263	1.144875	20.914	0.0171774	-0.00561415
1.75928	1.15076	21.114	0.0173614	-0.00560314
1.77593	1.15379	21.314	0.0175788	-0.00573348
1.79243	1.15884	21.514	0.0177782	-0.00570171
1.80903	1.16388	21.714	0.0179487	-0.00581906
1.82617	1.16687	21.914	0.0181123	-0.00586943
1.84238	1.17143	22.114	0.0183272	-0.00597058
1.85962	1.17426	22.314	0.0185311	-0.00610116
1.87539	1.17818	22.514	0.0188083	-0.00620175
1.89272	1.18133	22.714	0.0190785	-0.00624072
1.90894	1.18529	22.914	0.0192723	-0.00622521
1.92583	1.18879	23.114	0.0194964	-0.00629482
1.94243	1.19172	23.314	0.0195812	-0.00637366
1.95908	1.19809	23.514	0.0197944	-0.00649283
1.97598	1.19768	23.714	0.0200069	-0.00651828
1.99287	1.1981	23.914	0.0202657	-0.00673669
2.00938	1.19998	24.114	0.0205167	-0.0067755
2.02627	1.20446	24.314	0.0208202	-0.00685781
2.04233	1.20331	24.514	0.0211107	-0.00697938
2.05967	1.20528	24.714	0.0212211	-0.00710268
2.07563	1.2077	24.914	0.0214397	-0.00710332
2.09287	1.20863	25.114	0.0216726	-0.00717365
2.10894	1.21366	25.314	0.0220028	-0.00722372
2.12588	1.21364	25.514	0.0222206	-0.00728685
2.14253	1.21385	25.714	0.0225661	-0.00744357
2.15928	1.21433	25.914	0.0227828	-0.0074806
2.17603	1.21701	26.114	0.0229967	-0.00763024
2.19272	1.21786	26.314	0.023208	-0.00773764
2.20913	1.21906	26.514	0.0234211	-0.00788395
2.22622	1.22046	26.714	0.0236168	-0.00795162
2.24238	1.21958	26.914	0.0239751	-0.00794154
2.25967	1.22027	27.114	0.0242985	-0.00809831
2.27559	1.22201	27.314	0.0245362	-0.00820599
2.29292	1.2216	27.514	0.0246829	-0.00824171
2.30913	1.22078	27.714	0.0250233	-0.0083239
2.32612	1.22099	27.914	0.0252974	-0.00849586
2.34263	1.22251	28.114	0.0255543	-0.00859194
2.35928	1.22192	28.314	0.025875	-0.00870021
2.37612	1.22233	28.514	0.0261741	-0.0088678
2.39272	1.22122	28.714	0.0265154	-0.00899226
2.40903	1.2218	28.914	0.0267278	-0.00896077
2.42593	1.22473	29.114	0.0270375	-0.00905588
2.44214	1.21906	29.314	0.027266	-0.00917812
2.45972	1.21969	29.514	0.0275293	-0.00930898
2.47573	1.22071	29.714	0.0278917	-0.00944718
2.49302	1.21842	29.914	0.0280275	-0.00951237
2.50923	1.21915	30.114	0.0285197	-0.00974107
2.52632	1.21591	30.314	0.0287155	-0.00986731
2.54297	1.21512	30.514	0.0290572	-0.0099376
2.55957	1.21754	30.714	0.0293072	-0.00997431
2.57617	1.2165	30.914	0.0296668	-0.0101075
2.59277	1.213	31.114	0.0299732	-0.0102064
2.60923	1.21247	31.314	0.0303882	-0.0104035
2.62632	1.21238	31.514	0.0307901	-0.0104332
2.64243	1.20927	31.714	0.0310119	-0.0106404
2.65972	1.20891	31.914	0.031261	-0.0107298
2.67568	1.20612	32.114	0.0316568	-0.0109636
2.69326	1.20573	32.314	0.0320572	-0.01109
2.70952	1.20444	32.514	0.0323216	-0.0111906
2.72632	1.20255	32.714	0.032779	-0.0112872
2.74268	1.19961	32.914	0.0331011	-0.0114124
2.75928	1.19952	33.114	0.0333372	-0.011555
2.77607	1.19961	33.314	0.0336069	-0.0117505
2.79277	1.19696	33.514	0.0340006	-0.0119145
2.80918	1.19849	33.714	0.0343073	-0.0120883
2.82607	1.19658	33.914	0.0347309	-0.0122386
2.84233	1.1929	34.114	0.0352227	-0.0123789
2.85981	1.19185	34.314	0.035512	-0.0124393
2.87583	1.18849	34.514	0.0358772	-0.0126803
2.89307	1.18776	34.714	0.0362221	-0.012843
2.90908	1.18486	34.914	0.0366307	-0.0130874
2.92603	1.18412	35.114	0.0369742	-0.0132083
2.94263	1.18192	35.314	0.0374379	-0.0133675
2.95938	1.18085	35.514	0.0378458	-0.013593
2.97607	1.1792	35.714	0.0383196	-0.0136209
2.99272	1.17496	35.914	0.0385471	-0.0138571
3.00918	1.17436	36.114	0.0390183	-0.0140133
3.02637	1.17266	36.314	0.0393385	-0.0142052
3.04258	1.16787	36.514	0.0398555	-0.0143062
3.05977	1.16341	36.714	0.0404415	-0.0145798
3.07021	-0.124125	36.847	0.0407562	-0.0146615