Folder: An-experimental-and-numerical-study-of-the-mechanical-response-of-3D-printed-semicrystalline-polymer/Raw_Data./Tensile Nozzle 0.4 mm/45 Degrees/LH0.1_45D_N0.4/Test Run 5 02-21-20 12 51 24 PM

File: DAQ- Crosshead, … - (Timed).txt
File Path: C:\Users\MTS 300\Desktop\robin\eprouvette 45 lh01\Test Run 1 02-21-20 12 51 24 PM\DAQ- Crosshead, … - (Timed).txt
Test: Tensile test LEI 19
Test Run: Test Run 1
Date: 21/02/2020 12:50:09

Crosshead 	Load 	Time 	Strain 1 	Strain 2
mm	kN	sec	mm/mm	mm/mm
0.00385742	-0.00343692	0.114	-1.23968e-05	-4.15359e-05
0.0168945	0.00752945	0.314	4.37806e-05	-6.2385e-05
0.0333008	0.0203311	0.514	0.00017729	-6.29973e-05
0.0513672	0.0340958	0.714	0.000328275	-0.000142978
0.0688477	0.0479785	0.914	0.00048282	-0.000173602
0.0866211	0.059531	1.114	0.00064194	-0.000214937
0.103955	0.0750454	1.314	0.000905	-0.000330392
0.121436	0.0904999	1.514	0.000973632	-0.000365396
0.139404	0.102609	1.714	0.00116529	-0.000408325
0.156445	0.116404	1.914	0.00145517	-0.000501038
0.174316	0.131065	2.114	0.00171349	-0.000572281
0.190576	0.1429	2.314	0.0018639	-0.00064606
0.208203	0.157356	2.514	0.00202073	-0.00068774
0.224512	0.169006	2.714	0.00216248	-0.000769174
0.24165	0.179715	2.914	0.00223982	-0.000763869
0.258154	0.191907	3.114	0.00236969	-0.000849044
0.274902	0.202195	3.314	0.00257023	-0.000962466
0.291846	0.217135	3.514	0.002772	-0.00102092
0.30874	0.230589	3.714	0.00301799	-0.00104661
0.325488	0.240024	3.914	0.00323168	-0.0011537
0.342285	0.252425	4.114	0.0034111	-0.00118365
0.358594	0.25971	4.314	0.00358592	-0.00121984
0.375781	0.275073	4.514	0.00375458	-0.00128078
0.391699	0.285205	4.714	0.00397748	-0.00140826
0.408984	0.298188	4.914	0.00411929	-0.00141328
0.425146	0.305026	5.114	0.00437528	-0.00150216
0.442236	0.316814	5.314	0.00446435	-0.00155095
0.458838	0.324067	5.514	0.00467342	-0.00158859
0.475781	0.33604	5.714	0.00477598	-0.00158659
0.492627	0.345831	5.914	0.00489014	-0.00174002
0.50918	0.357562	6.114	0.00499103	-0.00174391
0.525928	0.36379	6.314	0.00518922	-0.00182794
0.542627	0.375545	6.514	0.00548262	-0.00191259
0.558887	0.384573	6.714	0.00570093	-0.00195658
0.575879	0.394406	6.914	0.00599238	-0.001991
0.591895	0.399604	7.114	0.00613211	-0.00205464
0.609326	0.411466	7.314	0.00635115	-0.0020961
0.625439	0.42207	7.514	0.00649563	-0.00213574
0.642529	0.432239	7.714	0.00666926	-0.00220265
0.659131	0.442254	7.914	0.0068758	-0.00223652
0.675977	0.45041	8.114	0.00701234	-0.00234222
0.692969	0.458333	8.314	0.00720266	-0.00240248
0.709521	0.468706	8.514	0.0073024	-0.0025078
0.726172	0.475698	8.714	0.00752069	-0.00251369
0.742822	0.484557	8.914	0.00763916	-0.00255136
0.759277	0.491429	9.114	0.00783714	-0.00262523
0.776416	0.500162	9.314	0.00795767	-0.00271248
0.79248	0.50669	9.514	0.00821861	-0.00271427
0.809717	0.517032	9.714	0.00836137	-0.00280378
0.825879	0.523836	9.914	0.00867325	-0.00282719
0.843018	0.531825	10.114	0.00885979	-0.00286753
0.859522	0.536536	10.314	0.00906387	-0.00298126
0.876123	0.548577	10.514	0.00922387	-0.00303688
0.892773	0.557789	10.714	0.00933384	-0.00307003
0.909229	0.565877	10.914	0.00947066	-0.00315906
0.925977	0.569909	11.114	0.00957714	-0.00320676
0.942871	0.57954	11.314	0.00979037	-0.00325909
0.959131	0.586715	11.514	0.0100012	-0.00330221
0.976172	0.592712	11.714	0.0102168	-0.00332633
0.992334	0.599189	11.914	0.0103575	-0.00341932
1.00981	0.608722	12.114	0.0105806	-0.00343639
1.02607	0.610895	12.314	0.01081	-0.00346998
1.04297	0.619264	12.514	0.0109203	-0.00355899
1.05918	0.627025	12.714	0.0111443	-0.00357135
1.07593	0.634154	12.914	0.0112928	-0.00369662
1.09287	0.643381	13.114	0.0115367	-0.00374191
1.10952	0.650117	13.314	0.0117267	-0.00375491
1.12622	0.657295	13.514	0.0119307	-0.00380953
1.14282	0.663207	13.714	0.0120543	-0.003813
1.15923	0.671437	13.914	0.0121474	-0.0038923
1.17656	0.679974	14.114	0.0122689	-0.00393866
1.19277	0.680636	14.314	0.0125031	-0.00403306
1.20986	0.69065	14.514	0.0126962	-0.00408708
1.22583	0.694263	14.714	0.012978	-0.00414761
1.24268	0.704184	14.914	0.0132246	-0.00422669
1.25913	0.707876	15.114	0.0134242	-0.00425397
1.27588	0.715821	15.314	0.0135755	-0.00429271
1.29253	0.722559	15.514	0.0137029	-0.00435347
1.30898	0.726634	15.714	0.0138931	-0.00436746
1.32583	0.735306	15.914	0.0140245	-0.00444121
1.34277	0.738863	16.114	0.0142896	-0.00452458
1.35918	0.746318	16.314	0.0144485	-0.00454715
1.37617	0.74976	16.514	0.0146671	-0.00466987
1.39214	0.75604	16.714	0.0147749	-0.00468631
1.40957	0.760704	16.914	0.0149579	-0.00472409
1.42578	0.76648	17.114	0.0150938	-0.00476454
1.44277	0.772675	17.314	0.0152596	-0.00490337
1.45918	0.778992	17.514	0.0155506	-0.00488255
1.47583	0.783736	17.714	0.0157448	-0.00489378
1.49272	0.791444	17.914	0.0160654	-0.00498711
1.50933	0.794836	18.114	0.0162027	-0.00506665
1.52598	0.79751	18.314	0.016417	-0.00510366
1.54268	0.804601	18.514	0.0165761	-0.00520001
1.55903	0.809608	18.714	0.0167595	-0.00520518
1.57617	0.815246	18.914	0.0168851	-0.00526203
1.59233	0.819806	19.114	0.0170968	-0.00533677
1.60967	0.822383	19.314	0.0173307	-0.0054103
1.62583	0.83056	19.514	0.0174742	-0.00547541
1.64282	0.830524	19.714	0.0177337	-0.00553036
1.65933	0.837679	19.914	0.0179334	-0.0055823
1.67607	0.839728	20.114	0.0181449	-0.00569428
1.69292	0.844652	20.314	0.0182848	-0.00567563
1.70942	0.847575	20.514	0.0185358	-0.00581106
1.72612	0.851399	20.714	0.0187542	-0.00587262
1.74282	0.855674	20.914	0.0190143	-0.0059321
1.75903	0.861122	21.114	0.0192458	-0.00599758
1.77603	0.86336	21.314	0.019467	-0.00607288
1.79204	0.866317	21.514	0.0196557	-0.00612608
1.80942	0.868965	21.714	0.0198546	-0.00619989
1.82559	0.8736	21.914	0.0199926	-0.00633915
1.84263	0.876991	22.114	0.0202517	-0.00632454
1.85908	0.876462	22.314	0.0203343	-0.00631463
1.87583	0.881415	22.514	0.0206042	-0.0064366
1.89268	0.883294	22.714	0.0209364	-0.00650409
1.90918	0.886655	22.914	0.0211643	-0.00657314
1.92573	0.886953	23.114	0.0214409	-0.00665744
1.94243	0.890582	23.314	0.0216424	-0.00674295
1.95879	0.892642	23.514	0.0219056	-0.00678982
1.97617	0.893958	23.714	0.0220279	-0.00687694
1.99238	0.894582	23.914	0.0223727	-0.00699976
2.00972	0.897987	24.114	0.0226473	-0.00698329
2.02603	0.899729	24.314	0.0230069	-0.00708897
2.04307	0.900863	24.514	0.0232397	-0.00714903
2.05957	0.90587	24.714	0.0235262	-0.00723112
2.07607	0.9065	24.914	0.0237714	-0.0072937
2.09272	0.904902	25.114	0.023902	-0.00739173
2.10918	0.907008	25.314	0.0242922	-0.00747231
2.12588	0.907019	25.514	0.0244274	-0.00757032
2.14263	0.905516	25.714	0.0248112	-0.00768564
2.15889	0.908451	25.914	0.0250972	-0.00773432
2.17598	0.910952	26.114	0.0254065	-0.00795623
2.19204	0.908699	26.314	0.0256479	-0.00791177
2.20962	0.907304	26.514	0.0258945	-0.00797411
2.22588	0.910847	26.714	0.0261458	-0.00808698
2.24277	0.912482	26.914	0.0265272	-0.00819398
2.25913	0.911575	27.114	0.0270149	-0.00826059
2.27593	0.911353	27.314	0.0273188	-0.00839332
2.29292	0.913229	27.514	0.0276901	-0.00848287
2.30957	0.911248	27.714	0.0280095	-0.00860365
2.32627	0.908413	27.914	0.0282739	-0.00871523
2.34292	0.910263	28.114	0.0285621	-0.00887648
2.35928	0.909187	28.314	0.0290061	-0.00898244
2.37637	0.905863	28.514	0.0293673	-0.00912456
2.39243	0.90738	28.714	0.0298466	-0.00915894
2.40957	0.908499	28.914	0.030141	-0.00923709
2.42544	0.904001	29.114	0.0305154	-0.00938831
2.44248	0.907455	29.314	0.0307149	-0.00947696
2.45898	0.905969	29.514	0.0312252	-0.00960903
2.47578	0.90434	29.714	0.0315907	-0.00976238
2.49253	0.899077	29.914	0.0319698	-0.00988535
2.50913	0.904167	30.114	0.0324351	-0.0100263
2.52588	0.905584	30.314	0.0327793	-0.010184
2.54277	0.900541	30.514	0.0332029	-0.0103389
2.55918	0.900909	30.714	0.0333993	-0.0105117
2.57622	0.900121	30.914	0.0338866	-0.0105422
2.59214	0.900727	31.114	0.0342534	-0.0107387
2.60952	0.898645	31.314	0.0347721	-0.0107373
2.62568	0.897788	31.514	0.0353955	-0.0108534
2.64268	0.896994	31.714	0.035643	-0.0110528
2.65898	0.893609	31.914	0.0361266	-0.0111819
2.67578	0.897337	32.114	0.0363508	-0.0113118
2.69277	0.894487	32.314	0.036852	-0.0114867
2.70937	0.892757	32.514	0.0371295	-0.0115703
2.72612	0.893593	32.714	0.0378302	-0.0118401
2.74272	0.891133	32.914	0.0382367	-0.0119258
2.75903	0.888982	33.114	0.0387066	-0.0121558
2.77617	0.891453	33.314	0.0390581	-0.0121888
2.79233	0.889159	33.514	0.0394474	-0.0123234
2.80957	0.88963	33.714	0.0398444	-0.012508
2.82568	0.888752	33.914	0.0404347	-0.0125708
2.84268	0.886536	34.114	0.0409517	-0.0127001
2.85923	0.887908	34.314	0.0413748	-0.0128523
2.87603	0.884346	34.514	0.0417627	-0.0129384
2.89287	0.885612	34.714	0.0422668	-0.0132118
2.90937	0.883753	34.914	0.0426142	-0.0133336
2.92607	0.881102	35.114	0.0430825	-0.0134834
2.94277	0.882651	35.314	0.0436969	-0.0136377
2.95913	0.881936	35.514	0.0440798	-0.0137832
2.97622	0.879254	35.714	0.0445438	-0.0139522
2.99229	0.877525	35.914	0.044936	-0.0141054
3.00972	0.875656	36.114	0.0454365	-0.014308
3.02588	0.876006	36.314	0.0457658	-0.0143749
3.04287	0.876438	36.514	0.0463688	-0.0144176
3.05928	0.876169	36.714	0.0469438	-0.0146165
3.07588	0.875226	36.914	0.0473499	-0.0147443
3.09263	0.876172	37.114	0.0478658	-0.0149463
3.10908	0.876269	37.314	0.0482763	-0.0150839
3.12559	0.872533	37.514	0.0488177	-0.0152427
3.14224	0.870166	37.714	0.049113	-0.0153411
3.15864	0.871199	37.914	0.0497252	-0.0154812
3.17598	0.873424	38.114	0.050122	-0.015583
3.19214	0.869553	38.314	0.0506959	-0.01583
3.20947	0.86785	38.514	0.0511065	-0.0159563
3.22563	0.870414	38.714	0.0518236	-0.0161524
3.24282	0.869041	38.914	0.0523033	-0.0163133
3.25933	0.870882	39.114	0.0526006	-0.0163589
3.27593	0.868335	39.314	0.0532015	-0.0165305
3.29258	0.865821	39.514	0.0535988	-0.0166301
3.30908	0.864017	39.714	0.0541863	-0.0168599
3.32578	0.863973	39.914	0.0545864	-0.0169475
3.34268	0.863318	40.114	0.0552182	-0.0172844
3.35894	0.860405	40.314	0.0557428	-0.0173701
3.37607	0.862597	40.514	0.0561919	-0.0175231
3.39224	0.857361	40.714	0.0566477	-0.0177149
3.39751	-0.0532613	40.776	0.0569747	-0.0178443