Folder: An-experimental-and-numerical-study-of-the-mechanical-response-of-3D-printed-semicrystalline-polymer/Raw_Data./Tensile Nozzle 0.4 mm/45 Degrees/LH0.1_45D_N0.4/Test Run 2 02-21-20 12 42 44 PM

File: DAQ- Crosshead, … - (Timed).txt
File Path: C:\Users\MTS 300\Desktop\robin\eprouvette 45 lh01\Test Run 1 02-21-20 12 42 44 PM\DAQ- Crosshead, … - (Timed).txt
Test: Tensile test LEI 16
Test Run: Test Run 1
Date: 21/02/2020 12:41:05

Crosshead 	Load 	Time 	Strain 1 	Strain 2
mm	kN	sec	mm/mm	mm/mm
0.00688477	0.013046	0.113	-8.78468e-06	1.87018e-05
0.0276855	0.0249799	0.413	4.88567e-05	-1.13021e-05
0.0518066	0.0473205	0.713	0.000236535	-7.53289e-05
0.077832	0.0649063	1.013	0.000527415	-0.000190999
0.104248	0.0849297	1.313	0.000742753	-0.000396113
0.129883	0.103461	1.613	0.000922207	-0.000388727
0.156006	0.121957	1.913	0.00123133	-0.000523306
0.181641	0.138163	2.213	0.00163837	-0.00056735
0.206836	0.158508	2.513	0.00183405	-0.000656171
0.232568	0.175506	2.813	0.00201857	-0.000727378
0.258154	0.189896	3.113	0.00215044	-0.000787069
0.282324	0.210124	3.413	0.00239814	-0.000833076
0.307861	0.227419	3.713	0.00269813	-0.00103346
0.333057	0.240345	4.013	0.00296592	-0.0011182
0.358496	0.259757	4.313	0.00329597	-0.00118946
0.383984	0.276104	4.613	0.00348152	-0.001276
0.408936	0.290198	4.913	0.00372062	-0.00131503
0.433984	0.307727	5.213	0.003993	-0.00141288
0.459229	0.319905	5.513	0.00431376	-0.00153047
0.48335	0.335718	5.813	0.00453409	-0.00168107
0.508594	0.350131	6.113	0.00473051	-0.00171753
0.53374	0.365166	6.413	0.00491835	-0.00179902
0.559277	0.379144	6.713	0.00520879	-0.0018736
0.584424	0.389467	7.013	0.00547064	-0.00193273
0.609033	0.405493	7.313	0.00585764	-0.00204148
0.634229	0.418374	7.613	0.00615652	-0.00211819
0.659668	0.430193	7.913	0.00640009	-0.00227683
0.683887	0.443894	8.213	0.00650844	-0.0023395
0.709326	0.453752	8.513	0.00678793	-0.00243313
0.734473	0.468378	8.813	0.00704704	-0.00244571
0.75957	0.480463	9.113	0.00737867	-0.00250286
0.78457	0.494989	9.413	0.00758962	-0.00263517
0.808887	0.504236	9.713	0.00774561	-0.00270095
0.833936	0.513585	10.013	0.00800164	-0.00285398
0.859326	0.527754	10.313	0.00832385	-0.00290845
0.88374	0.537965	10.613	0.00871417	-0.00296553
0.909082	0.550031	10.913	0.00895597	-0.00303364
0.934229	0.562601	11.213	0.00909721	-0.00310033
0.959326	0.570853	11.513	0.00928451	-0.00316523
0.984229	0.583802	11.813	0.00952184	-0.00326303
1.00874	0.592957	12.113	0.00981909	-0.00341733
1.03408	0.60391	12.413	0.0101192	-0.00348589
1.05952	0.613618	12.713	0.0103834	-0.00351603
1.08403	0.625189	13.013	0.0106165	-0.00361756
1.10942	0.634356	13.313	0.0108361	-0.00367563
1.13433	0.641917	13.613	0.0111186	-0.00376337
1.15928	0.652289	13.913	0.0114247	-0.0038432
1.18433	0.66116	14.213	0.0116504	-0.00397536
1.20903	0.670914	14.513	0.011819	-0.00401108
1.23428	0.680316	14.813	0.0120448	-0.00405006
1.25991	0.690101	15.113	0.0122975	-0.00414176
1.28423	0.701707	15.413	0.0126435	-0.00422759
1.30913	0.710155	15.713	0.0129292	-0.00427627
1.33398	0.715112	16.013	0.0132845	-0.00429487
1.35928	0.727172	16.313	0.0134553	-0.00441861
1.38418	0.732832	16.613	0.0136633	-0.00458823
1.40889	0.741423	16.913	0.0139586	-0.00460222
1.43433	0.748772	17.213	0.0142384	-0.00466441
1.45972	0.757158	17.513	0.0143932	-0.00474812
1.48389	0.761624	17.813	0.0146786	-0.00483318
1.50923	0.769751	18.113	0.0149696	-0.00488476
1.53413	0.777484	18.413	0.0152194	-0.00504364
1.55913	0.786281	18.713	0.0155206	-0.0051089
1.58433	0.790246	19.013	0.0159492	-0.00514376
1.60898	0.799168	19.313	0.0161042	-0.00528155
1.63408	0.805754	19.613	0.0162443	-0.00529113
1.65947	0.812029	19.913	0.0164939	-0.00540297
1.68379	0.816494	20.213	0.0168493	-0.00544014
1.70889	0.822934	20.513	0.0171289	-0.00561079
1.73403	0.825833	20.813	0.0173692	-0.00574855
1.75942	0.8307	21.113	0.0176768	-0.00577314
1.78462	0.838218	21.413	0.0179673	-0.00587754
1.80894	0.842962	21.713	0.0183345	-0.0059106
1.83413	0.846406	22.013	0.0185686	-0.00600521
1.85952	0.850269	22.313	0.0188204	-0.00615032
1.88384	0.851957	22.613	0.0190205	-0.0062623
1.90913	0.856149	22.913	0.0191804	-0.00625496
1.93433	0.861552	23.213	0.0196594	-0.00634022
1.95947	0.867002	23.513	0.019848	-0.00644387
1.98447	0.864343	23.813	0.0203481	-0.00652175
2.00903	0.868965	24.113	0.0205425	-0.00660771
2.03403	0.871554	24.413	0.0207865	-0.00679017
2.05962	0.874856	24.713	0.0210731	-0.00676511
2.08403	0.875745	25.013	0.0213781	-0.00684056
2.10928	0.873384	25.313	0.0216896	-0.00688972
2.13442	0.877711	25.613	0.0219928	-0.00706277
2.15947	0.881374	25.913	0.022216	-0.00709768
2.18433	0.880851	26.213	0.0224728	-0.00723997
2.20898	0.882145	26.513	0.0230336	-0.00732602
2.23428	0.884824	26.813	0.0233321	-0.00739562
2.25967	0.882394	27.113	0.0235332	-0.00744437
2.28394	0.884451	27.413	0.0238072	-0.00748145
2.30918	0.884636	27.713	0.0240514	-0.00758175
2.33398	0.885604	28.013	0.0244294	-0.00764241
2.35894	0.881764	28.313	0.02476	-0.00775052
2.38398	0.881137	28.613	0.0250667	-0.00783501
2.40869	0.883424	28.913	0.0253117	-0.00790735
2.43384	0.882068	29.213	0.0256767	-0.00800688
2.45957	0.882714	29.513	0.0260728	-0.00805964
2.48413	0.881533	29.813	0.0262816	-0.00816393
2.50923	0.879978	30.113	0.0265041	-0.00824375
2.53418	0.880781	30.413	0.0267548	-0.00828341
2.55933	0.878703	30.713	0.0272254	-0.00834941
2.58433	0.876881	31.013	0.0275434	-0.0084302
2.60894	0.878674	31.313	0.0278219	-0.00845135
2.63437	0.874531	31.613	0.0281105	-0.00856466
2.65972	0.877226	31.913	0.0284088	-0.00858102
2.68384	0.874041	32.213	0.0286558	-0.0086436
2.70908	0.873151	32.513	0.0289282	-0.00872781
2.73413	0.870482	32.813	0.0292691	-0.00877381
2.75923	0.873543	33.113	0.0296117	-0.00886838
2.78452	0.871997	33.413	0.0299563	-0.00891861
2.80928	0.869332	33.713	0.0302439	-0.00895641
2.83418	0.867213	34.013	0.030376	-0.0090334
2.85957	0.864371	34.313	0.0306525	-0.0091194
2.88384	0.867141	34.613	0.031087	-0.00914228
2.90898	0.866583	34.913	0.0314507	-0.0091679
2.93408	0.863451	35.213	0.0316855	-0.00921236
2.95947	0.86104	35.513	0.0318731	-0.00929411
2.98452	0.860729	35.813	0.0322642	-0.00935032
3.00879	0.85938	36.113	0.032549	-0.00941838
3.03384	0.859104	36.413	0.0327421	-0.00948069
3.05933	0.860664	36.713	0.0330383	-0.00949578
3.08364	0.854156	37.013	0.0333719	-0.00956926
3.10908	0.856964	37.313	0.0337187	-0.00962886
3.13418	0.854263	37.613	0.0339739	-0.00967371
3.15928	0.854557	37.913	0.034154	-0.00966756
3.18428	0.853376	38.213	0.0345386	-0.00971494
3.20869	0.850186	38.513	0.0347708	-0.00979255
3.23379	0.852684	38.813	0.0350881	-0.00984162
3.25937	0.848762	39.113	0.0353682	-0.0099319
3.28389	0.848392	39.413	0.0356389	-0.00992035
3.30923	0.846726	39.713	0.0359312	-0.00993909
3.33447	0.848342	40.013	0.0362393	-0.0100321
3.35947	0.846501	40.313	0.0364692	-0.0101095
3.38433	0.843719	40.613	0.0367383	-0.0100671
3.40879	0.84372	40.913	0.0370792	-0.0101973
3.43413	0.8427	41.213	0.0373762	-0.0102268
3.45967	0.843658	41.513	0.0375523	-0.010279
3.48413	0.844203	41.813	0.0377905	-0.0103915
3.50933	0.845057	42.113	0.0381671	-0.0103988
3.53408	0.843154	42.413	0.0384561	-0.0104048
3.55898	0.840925	42.713	0.0386932	-0.0104247
3.58418	0.840825	43.013	0.0388887	-0.0104847
3.60889	0.836922	43.313	0.0392139	-0.0105398
3.63418	0.835025	43.613	0.0394655	-0.0105498
3.65981	0.836408	43.913	0.0397018	-0.0106117
3.68413	0.836735	44.213	0.0399849	-0.0106193
3.70908	0.836181	44.513	0.0402749	-0.0107096
3.73403	0.836165	44.813	0.0405298	-0.0108149
3.75928	0.834184	45.113	0.0407033	-0.0108567
3.78438	0.832114	45.413	0.0409403	-0.0109476
3.80913	0.830771	45.713	0.0412219	-0.0109802
3.83452	0.834701	46.013	0.041474	-0.0110506
3.85981	0.830525	46.313	0.0417601	-0.0110787
3.88374	0.827519	46.613	0.0419201	-0.0111963
3.90908	0.82523	46.913	0.0420652	-0.0112684
3.93418	0.823561	47.213	0.0423118	-0.0112725
3.95928	0.823977	47.513	0.0424992	-0.0113808
3.98457	0.818407	47.813	0.0427196	-0.0114422
4.00913	0.793993	48.113	0.0428631	-0.0114414
4.01045	-0.0865196	48.128	0.0428718	-0.0114414